LabVIEW Measurement	
Writer_Version	2
Reader_Version	2
Separator	Tab
Decimal_Separator	.
Multi_Headings	No
X_Columns	Multi
Time_Pref	Relative
Operator	TG lab
Date	2015/03/06
Time	18:23:58.3830313682556152344
***End_of_Header***	
	
Channels	1	
Samples	2000	
Date	2015/03/06	
Time	18:23:58.3830313682556152344	
X_Dimension	Time	
X0	0.0000000000000000E+0	
Delta_X	5.000000E-11	
***End_of_Header***		
X_Value	Untitled	Comment
0.000000	0.001738
5.000000E-11	0.001731
1.000000E-10	0.001638
1.500000E-10	0.001697
2.000000E-10	0.001778
2.500000E-10	0.001716
3.000000E-10	0.001687
3.500000E-10	0.001819
4.000000E-10	0.001759
4.500000E-10	0.001669
5.000000E-10	0.001750
5.500000E-10	0.001972
6.000000E-10	0.001894
6.500000E-10	0.001984
7.000000E-10	0.002034
7.500000E-10	0.001988
8.000000E-10	0.001891
8.500000E-10	0.001959
9.000000E-10	0.001956
9.500000E-10	0.002000
1.000000E-9	0.001956
1.050000E-9	0.001897
1.100000E-9	0.001766
1.150000E-9	0.001778
1.200000E-9	0.001638
1.250000E-9	0.001625
1.300000E-9	0.001494
1.350000E-9	0.001413
1.400000E-9	0.001478
1.450000E-9	0.001459
1.500000E-9	0.001491
1.550000E-9	0.001609
1.600000E-9	0.001594
1.650000E-9	0.001800
1.700000E-9	0.001794
1.750000E-9	0.001800
1.800000E-9	0.001769
1.850000E-9	0.001694
1.900000E-9	0.001603
1.950000E-9	0.001625
2.000000E-9	0.001522
2.050000E-9	0.001406
2.100000E-9	0.001384
2.150000E-9	0.001378
2.200000E-9	0.001359
2.250000E-9	0.001403
2.300000E-9	0.001378
2.350000E-9	0.001516
2.400000E-9	0.001459
2.450000E-9	0.001491
2.500000E-9	0.001319
2.550000E-9	0.001328
2.600000E-9	0.001206
2.650000E-9	0.001187
2.700000E-9	0.001094
2.750000E-9	0.001075
2.800000E-9	0.001091
2.850000E-9	0.001144
2.900000E-9	0.000941
2.950000E-9	0.001163
3.000000E-9	0.001144
3.050000E-9	0.001334
3.100000E-9	0.001250
3.150000E-9	0.001228
3.200000E-9	0.001231
3.250000E-9	0.001200
3.300000E-9	0.001006
3.350000E-9	0.000950
3.400000E-9	0.000906
3.450000E-9	0.000925
3.500000E-9	0.000834
3.550000E-9	0.000850
3.600000E-9	0.000831
3.650000E-9	0.001003
3.700000E-9	0.000947
3.750000E-9	0.001006
3.800000E-9	0.001194
3.850000E-9	0.001247
3.900000E-9	0.001369
3.950000E-9	0.001428
4.000000E-9	0.001616
4.050000E-9	0.001519
4.100000E-9	0.001584
4.150000E-9	0.001719
4.200000E-9	0.001709
4.250000E-9	0.001831
4.300000E-9	0.002019
4.350000E-9	0.002184
4.400000E-9	0.002466
4.450000E-9	0.002747
4.500000E-9	0.002956
4.550000E-9	0.003188
4.600000E-9	0.003563
4.650000E-9	0.003719
4.700000E-9	0.003806
4.750000E-9	0.003663
4.800000E-9	0.003197
4.850000E-9	0.002338
4.900000E-9	0.001084
4.950000E-9	-0.000553
5.000000E-9	-0.002647
5.050000E-9	-0.005069
5.100000E-9	-0.008025
5.150000E-9	-0.011178
5.200000E-9	-0.014412
5.250000E-9	-0.017619
5.300000E-9	-0.020853
5.350000E-9	-0.023863
5.400000E-9	-0.026641
5.450000E-9	-0.028909
5.500000E-9	-0.030772
5.550000E-9	-0.032159
5.600000E-9	-0.033275
5.650000E-9	-0.033719
5.700000E-9	-0.033809
5.750000E-9	-0.033203
5.800000E-9	-0.032456
5.850000E-9	-0.031116
5.900000E-9	-0.029550
5.950000E-9	-0.027856
6.000000E-9	-0.025944
6.050000E-9	-0.024075
6.100000E-9	-0.022266
6.150000E-9	-0.020694
6.200000E-9	-0.019544
6.250000E-9	-0.018541
6.300000E-9	-0.017978
6.350000E-9	-0.017653
6.400000E-9	-0.017750
6.450000E-9	-0.018038
6.500000E-9	-0.018569
6.550000E-9	-0.019228
6.600000E-9	-0.019984
6.650000E-9	-0.020709
6.700000E-9	-0.021334
6.750000E-9	-0.021872
6.800000E-9	-0.022466
6.850000E-9	-0.022803
6.900000E-9	-0.023088
6.950000E-9	-0.022928
7.000000E-9	-0.022616
7.050000E-9	-0.022034
7.100000E-9	-0.021294
7.150000E-9	-0.020425
7.200000E-9	-0.019256
7.250000E-9	-0.017897
7.300000E-9	-0.016559
7.350000E-9	-0.015078
7.400000E-9	-0.013700
7.450000E-9	-0.012334
7.500000E-9	-0.011219
7.550000E-9	-0.010309
7.600000E-9	-0.009825
7.650000E-9	-0.009541
7.700000E-9	-0.009541
7.750000E-9	-0.009653
7.800000E-9	-0.009978
7.850000E-9	-0.010556
7.900000E-9	-0.011191
7.950000E-9	-0.011909
8.000000E-9	-0.012681
8.050000E-9	-0.013284
8.100000E-9	-0.013900
8.150000E-9	-0.014281
8.200000E-9	-0.014619
8.250000E-9	-0.014672
8.300000E-9	-0.014591
8.350000E-9	-0.014228
8.400000E-9	-0.013784
8.450000E-9	-0.012934
8.500000E-9	-0.012144
8.550000E-9	-0.011028
8.600000E-9	-0.010044
8.650000E-9	-0.008947
8.700000E-9	-0.007987
8.750000E-9	-0.006934
8.800000E-9	-0.006016
8.850000E-9	-0.005269
8.900000E-9	-0.004897
8.950000E-9	-0.004425
9.000000E-9	-0.004453
9.050000E-9	-0.004466
9.100000E-9	-0.004850
9.150000E-9	-0.005372
9.200000E-9	-0.006091
9.250000E-9	-0.006781
9.300000E-9	-0.007681
9.350000E-9	-0.008594
9.400000E-9	-0.009356
9.450000E-9	-0.010081
9.500000E-9	-0.010491
9.550000E-9	-0.010663
9.600000E-9	-0.010756
9.650000E-9	-0.010381
9.700000E-9	-0.010013
9.750000E-9	-0.009322
9.800000E-9	-0.008597
9.850000E-9	-0.007738
9.900000E-9	-0.006928
9.950000E-9	-0.005944
1.000000E-8	-0.005066
1.005000E-8	-0.004253
1.010000E-8	-0.003584
1.015000E-8	-0.002913
1.020000E-8	-0.002459
1.025000E-8	-0.002144
1.030000E-8	-0.001919
1.035000E-8	-0.002000
1.040000E-8	-0.002203
1.045000E-8	-0.002516
1.050000E-8	-0.002991
1.055000E-8	-0.003559
1.060000E-8	-0.004156
1.065000E-8	-0.004834
1.070000E-8	-0.005478
1.075000E-8	-0.006044
1.080000E-8	-0.006719
1.085000E-8	-0.007050
1.090000E-8	-0.007266
1.095000E-8	-0.007334
1.100000E-8	-0.007381
1.105000E-8	-0.007025
1.110000E-8	-0.006622
1.115000E-8	-0.005953
1.120000E-8	-0.005291
1.125000E-8	-0.004372
1.130000E-8	-0.003575
1.135000E-8	-0.002591
1.140000E-8	-0.001784
1.145000E-8	-0.000894
1.150000E-8	-0.000197
1.155000E-8	0.000291
1.160000E-8	0.000506
1.165000E-8	0.000541
1.170000E-8	0.000403
1.175000E-8	0.000191
1.180000E-8	-0.000325
1.185000E-8	-0.000931
1.190000E-8	-0.001656
1.195000E-8	-0.002369
1.200000E-8	-0.003181
1.205000E-8	-0.003784
1.210000E-8	-0.004428
1.215000E-8	-0.004972
1.220000E-8	-0.005328
1.225000E-8	-0.005566
1.230000E-8	-0.005722
1.235000E-8	-0.005497
1.240000E-8	-0.005228
1.245000E-8	-0.004869
1.250000E-8	-0.004281
1.255000E-8	-0.003453
1.260000E-8	-0.002703
1.265000E-8	-0.001834
1.270000E-8	-0.001038
1.275000E-8	-0.000172
1.280000E-8	0.000488
1.285000E-8	0.001072
1.290000E-8	0.001366
1.295000E-8	0.001675
1.300000E-8	0.001638
1.305000E-8	0.001316
1.310000E-8	0.000959
1.315000E-8	0.000594
1.320000E-8	-0.000116
1.325000E-8	-0.000741
1.330000E-8	-0.001528
1.335000E-8	-0.002209
1.340000E-8	-0.002916
1.345000E-8	-0.003587
1.350000E-8	-0.004234
1.355000E-8	-0.004363
1.360000E-8	-0.004644
1.365000E-8	-0.004419
1.370000E-8	-0.004228
1.375000E-8	-0.003847
1.380000E-8	-0.003206
1.385000E-8	-0.002403
1.390000E-8	-0.001684
1.395000E-8	-0.000781
1.400000E-8	3.125000E-5
1.405000E-8	0.000856
1.410000E-8	0.001631
1.415000E-8	0.002259
1.420000E-8	0.002772
1.425000E-8	0.003081
1.430000E-8	0.003131
1.435000E-8	0.002909
1.440000E-8	0.002494
1.445000E-8	0.001875
1.450000E-8	0.001091
1.455000E-8	0.000297
1.460000E-8	-0.000663
1.465000E-8	-0.001488
1.470000E-8	-0.002319
1.475000E-8	-0.003091
1.480000E-8	-0.003763
1.485000E-8	-0.004109
1.490000E-8	-0.004256
1.495000E-8	-0.004069
1.500000E-8	-0.003906
1.505000E-8	-0.003381
1.510000E-8	-0.002888
1.515000E-8	-0.002066
1.520000E-8	-0.001272
1.525000E-8	-0.000241
1.530000E-8	0.000594
1.535000E-8	0.001437
1.540000E-8	0.002156
1.545000E-8	0.002784
1.550000E-8	0.003134
1.555000E-8	0.003581
1.560000E-8	0.003666
1.565000E-8	0.003606
1.570000E-8	0.003341
1.575000E-8	0.002822
1.580000E-8	0.002059
1.585000E-8	0.001356
1.590000E-8	0.000494
1.595000E-8	-0.000391
1.600000E-8	-0.001416
1.605000E-8	-0.002050
1.610000E-8	-0.002753
1.615000E-8	-0.003097
1.620000E-8	-0.003300
1.625000E-8	-0.003266
1.630000E-8	-0.003103
1.635000E-8	-0.002641
1.640000E-8	-0.001931
1.645000E-8	-0.001059
1.650000E-8	-9.375000E-5
1.655000E-8	0.000997
1.660000E-8	0.001881
1.665000E-8	0.002772
1.670000E-8	0.003609
1.675000E-8	0.004347
1.680000E-8	0.004634
1.685000E-8	0.004919
1.690000E-8	0.004738
1.695000E-8	0.004522
1.700000E-8	0.003953
1.705000E-8	0.003331
1.710000E-8	0.002553
1.715000E-8	0.001753
1.720000E-8	0.000763
1.725000E-8	-0.000125
1.730000E-8	-0.000959
1.735000E-8	-0.001556
1.740000E-8	-0.002184
1.745000E-8	-0.002563
1.750000E-8	-0.002647
1.755000E-8	-0.002609
1.760000E-8	-0.002497
1.765000E-8	-0.002053
1.770000E-8	-0.001456
1.775000E-8	-0.000728
1.780000E-8	0.000222
1.785000E-8	0.001084
1.790000E-8	0.001888
1.795000E-8	0.002784
1.800000E-8	0.003491
1.805000E-8	0.004050
1.810000E-8	0.004378
1.815000E-8	0.004500
1.820000E-8	0.004428
1.825000E-8	0.004203
1.830000E-8	0.003666
1.835000E-8	0.003213
1.840000E-8	0.002478
1.845000E-8	0.001628
1.850000E-8	0.000791
1.855000E-8	-5.937500E-5
1.860000E-8	-0.000800
1.865000E-8	-0.001413
1.870000E-8	-0.001909
1.875000E-8	-0.002253
1.880000E-8	-0.002338
1.885000E-8	-0.002213
1.890000E-8	-0.002028
1.895000E-8	-0.001372
1.900000E-8	-0.000816
1.905000E-8	-6.250000E-5
1.910000E-8	0.000716
1.915000E-8	0.001472
1.920000E-8	0.002225
1.925000E-8	0.002884
1.930000E-8	0.003444
1.935000E-8	0.003916
1.940000E-8	0.004256
1.945000E-8	0.004513
1.950000E-8	0.004606
1.955000E-8	0.004503
1.960000E-8	0.004019
1.965000E-8	0.003641
1.970000E-8	0.002972
1.975000E-8	0.002237
1.980000E-8	0.001422
1.985000E-8	0.000634
1.990000E-8	-0.000209
1.995000E-8	-0.000703
2.000000E-8	-0.001244
2.005000E-8	-0.001644
2.010000E-8	-0.002009
2.015000E-8	-0.002003
2.020000E-8	-0.001906
2.025000E-8	-0.001475
2.030000E-8	-0.001038
2.035000E-8	-0.000394
2.040000E-8	0.000428
2.045000E-8	0.001069
2.050000E-8	0.001769
2.055000E-8	0.002597
2.060000E-8	0.003138
2.065000E-8	0.003775
2.070000E-8	0.004078
2.075000E-8	0.004228
2.080000E-8	0.004269
2.085000E-8	0.004150
2.090000E-8	0.003791
2.095000E-8	0.003409
2.100000E-8	0.002906
2.105000E-8	0.002281
2.110000E-8	0.001669
2.115000E-8	0.001009
2.120000E-8	0.000291
2.125000E-8	-0.000231
2.130000E-8	-0.000781
2.135000E-8	-0.001141
2.140000E-8	-0.001431
2.145000E-8	-0.001447
2.150000E-8	-0.001413
2.155000E-8	-0.001159
2.160000E-8	-0.000816
2.165000E-8	-0.000284
2.170000E-8	0.000269
2.175000E-8	0.001000
2.180000E-8	0.001638
2.185000E-8	0.002325
2.190000E-8	0.002981
2.195000E-8	0.003578
2.200000E-8	0.003909
2.205000E-8	0.004331
2.210000E-8	0.004338
2.215000E-8	0.004497
2.220000E-8	0.004216
2.225000E-8	0.003906
2.230000E-8	0.003563
2.235000E-8	0.003103
2.240000E-8	0.002437
2.245000E-8	0.001716
2.250000E-8	0.001072
2.255000E-8	0.000438
2.260000E-8	-8.125000E-5
2.265000E-8	-0.000306
2.270000E-8	-0.000666
2.275000E-8	-0.000841
2.280000E-8	-0.000878
2.285000E-8	-0.000781
2.290000E-8	-0.000659
2.295000E-8	-0.000172
2.300000E-8	0.000275
2.305000E-8	0.000822
2.310000E-8	0.001366
2.315000E-8	0.002084
2.320000E-8	0.002600
2.325000E-8	0.003275
2.330000E-8	0.003703
2.335000E-8	0.004059
2.340000E-8	0.004206
2.345000E-8	0.004416
2.350000E-8	0.004166
2.355000E-8	0.004022
2.360000E-8	0.003563
2.365000E-8	0.002991
2.370000E-8	0.002297
2.375000E-8	0.001713
2.380000E-8	0.000850
2.385000E-8	0.000209
2.390000E-8	-0.000444
2.395000E-8	-0.000822
2.400000E-8	-0.001294
2.405000E-8	-0.001491
2.410000E-8	-0.001612
2.415000E-8	-0.001366
2.420000E-8	-0.001225
2.425000E-8	-0.000684
2.430000E-8	-5.937500E-5
2.435000E-8	0.000503
2.440000E-8	0.001178
2.445000E-8	0.001994
2.450000E-8	0.002644
2.455000E-8	0.003319
2.460000E-8	0.003747
2.465000E-8	0.004131
2.470000E-8	0.004394
2.475000E-8	0.004600
2.480000E-8	0.004328
2.485000E-8	0.003959
2.490000E-8	0.003563
2.495000E-8	0.003041
2.500000E-8	0.002416
2.505000E-8	0.001728
2.510000E-8	0.000966
2.515000E-8	0.000309
2.520000E-8	-0.000344
2.525000E-8	-0.000772
2.530000E-8	-0.001222
2.535000E-8	-0.001394
2.540000E-8	-0.001378
2.545000E-8	-0.001241
2.550000E-8	-0.000981
2.555000E-8	-0.000472
2.560000E-8	6.562500E-5
2.565000E-8	0.000828
2.570000E-8	0.001484
2.575000E-8	0.002266
2.580000E-8	0.002913
2.585000E-8	0.003697
2.590000E-8	0.004253
2.595000E-8	0.004719
2.600000E-8	0.005053
2.605000E-8	0.005069
2.610000E-8	0.004859
2.615000E-8	0.004537
2.620000E-8	0.003994
2.625000E-8	0.003431
2.630000E-8	0.002647
2.635000E-8	0.001919
2.640000E-8	0.001131
2.645000E-8	0.000328
2.650000E-8	-0.000231
2.655000E-8	-0.000916
2.660000E-8	-0.001250
2.665000E-8	-0.001547
2.670000E-8	-0.001469
2.675000E-8	-0.001244
2.680000E-8	-0.000894
2.685000E-8	-0.000506
2.690000E-8	0.000106
2.695000E-8	0.000763
2.700000E-8	0.001447
2.705000E-8	0.002162
2.710000E-8	0.002747
2.715000E-8	0.003447
2.720000E-8	0.003966
2.725000E-8	0.004441
2.730000E-8	0.004738
2.735000E-8	0.004713
2.740000E-8	0.004609
2.745000E-8	0.004450
2.750000E-8	0.003962
2.755000E-8	0.003406
2.760000E-8	0.002675
2.765000E-8	0.002006
2.770000E-8	0.001328
2.775000E-8	0.000612
2.780000E-8	-0.000147
2.785000E-8	-0.000478
2.790000E-8	-0.000856
2.795000E-8	-0.001006
2.800000E-8	-0.001116
2.805000E-8	-0.000984
2.810000E-8	-0.000713
2.815000E-8	-0.000259
2.820000E-8	0.000306
2.825000E-8	0.000888
2.830000E-8	0.001544
2.835000E-8	0.002234
2.840000E-8	0.002803
2.845000E-8	0.003469
2.850000E-8	0.003878
2.855000E-8	0.004384
2.860000E-8	0.004584
2.865000E-8	0.004644
2.870000E-8	0.004378
2.875000E-8	0.004313
2.880000E-8	0.003728
2.885000E-8	0.003278
2.890000E-8	0.002584
2.895000E-8	0.002016
2.900000E-8	0.001344
2.905000E-8	0.000763
2.910000E-8	0.000284
2.915000E-8	-0.000169
2.920000E-8	-0.000619
2.925000E-8	-0.000778
2.930000E-8	-0.000859
2.935000E-8	-0.000728
2.940000E-8	-0.000609
2.945000E-8	-0.000259
2.950000E-8	9.375000E-5
2.955000E-8	0.000709
2.960000E-8	0.001350
2.965000E-8	0.001937
2.970000E-8	0.002459
2.975000E-8	0.002969
2.980000E-8	0.003338
2.985000E-8	0.003622
2.990000E-8	0.003847
2.995000E-8	0.003891
3.000000E-8	0.003756
3.005000E-8	0.003681
3.010000E-8	0.003388
3.015000E-8	0.003128
3.020000E-8	0.002494
3.025000E-8	0.002159
3.030000E-8	0.001569
3.035000E-8	0.001022
3.040000E-8	0.000438
3.045000E-8	7.812500E-5
3.050000E-8	-0.000325
3.055000E-8	-0.000563
3.060000E-8	-0.000694
3.065000E-8	-0.000544
3.070000E-8	-0.000453
3.075000E-8	4.375000E-5
3.080000E-8	0.000422
3.085000E-8	0.000863
3.090000E-8	0.001313
3.095000E-8	0.001925
3.100000E-8	0.002316
3.105000E-8	0.002903
3.110000E-8	0.003206
3.115000E-8	0.003575
3.120000E-8	0.003813
3.125000E-8	0.004006
3.130000E-8	0.004000
3.135000E-8	0.004047
3.140000E-8	0.003844
3.145000E-8	0.003544
3.150000E-8	0.003194
3.155000E-8	0.002684
3.160000E-8	0.002091
3.165000E-8	0.001488
3.170000E-8	0.000819
3.175000E-8	0.000331
3.180000E-8	-0.000169
3.185000E-8	-0.000453
3.190000E-8	-0.000750
3.195000E-8	-0.000722
3.200000E-8	-0.000528
3.205000E-8	-0.000338
3.210000E-8	2.187500E-5
3.215000E-8	0.000506
3.220000E-8	0.000903
3.225000E-8	0.001544
3.230000E-8	0.002162
3.235000E-8	0.002512
3.240000E-8	0.003087
3.245000E-8	0.003538
3.250000E-8	0.003878
3.255000E-8	0.004178
3.260000E-8	0.004194
3.265000E-8	0.004191
3.270000E-8	0.003931
3.275000E-8	0.003678
3.280000E-8	0.003150
3.285000E-8	0.002650
3.290000E-8	0.002116
3.295000E-8	0.001594
3.300000E-8	0.000922
3.305000E-8	0.000422
3.310000E-8	-1.562500E-5
3.315000E-8	-0.000306
3.320000E-8	-0.000581
3.325000E-8	-0.000684
3.330000E-8	-0.000675
3.335000E-8	-0.000500
3.340000E-8	-0.000216
3.345000E-8	0.000297
3.350000E-8	0.000572
3.355000E-8	0.001213
3.360000E-8	0.001706
3.365000E-8	0.002228
3.370000E-8	0.002569
3.375000E-8	0.003197
3.380000E-8	0.003534
3.385000E-8	0.003834
3.390000E-8	0.003919
3.395000E-8	0.003981
3.400000E-8	0.003800
3.405000E-8	0.003506
3.410000E-8	0.003206
3.415000E-8	0.002800
3.420000E-8	0.002334
3.425000E-8	0.001753
3.430000E-8	0.001159
3.435000E-8	0.000809
3.440000E-8	0.000275
3.445000E-8	-0.000103
3.450000E-8	-0.000334
3.455000E-8	-0.000475
3.460000E-8	-0.000519
3.465000E-8	-0.000309
3.470000E-8	-9.687500E-5
3.475000E-8	0.000203
3.480000E-8	0.000578
3.485000E-8	0.001144
3.490000E-8	0.001669
3.495000E-8	0.002247
3.500000E-8	0.002713
3.505000E-8	0.003131
3.510000E-8	0.003434
3.515000E-8	0.003803
3.520000E-8	0.003872
3.525000E-8	0.003856
3.530000E-8	0.003800
3.535000E-8	0.003613
3.540000E-8	0.003100
3.545000E-8	0.002709
3.550000E-8	0.002181
3.555000E-8	0.001659
3.560000E-8	0.001150
3.565000E-8	0.000778
3.570000E-8	0.000209
3.575000E-8	-0.000144
3.580000E-8	-0.000338
3.585000E-8	-0.000391
3.590000E-8	-0.000453
3.595000E-8	-0.000247
3.600000E-8	9.375000E-6
3.605000E-8	0.000363
3.610000E-8	0.000675
3.615000E-8	0.001266
3.620000E-8	0.001763
3.625000E-8	0.002369
3.630000E-8	0.002856
3.635000E-8	0.003434
3.640000E-8	0.003741
3.645000E-8	0.003953
3.650000E-8	0.004031
3.655000E-8	0.004119
3.660000E-8	0.003909
3.665000E-8	0.003688
3.670000E-8	0.003300
3.675000E-8	0.002819
3.680000E-8	0.002241
3.685000E-8	0.001794
3.690000E-8	0.001088
3.695000E-8	0.000672
3.700000E-8	0.000184
3.705000E-8	-0.000131
3.710000E-8	-0.000325
3.715000E-8	-0.000403
3.720000E-8	-0.000378
3.725000E-8	-0.000163
3.730000E-8	-9.375000E-6
3.735000E-8	0.000447
3.740000E-8	0.000872
3.745000E-8	0.001488
3.750000E-8	0.001919
3.755000E-8	0.002553
3.760000E-8	0.002972
3.765000E-8	0.003375
3.770000E-8	0.003672
3.775000E-8	0.003859
3.780000E-8	0.003859
3.785000E-8	0.003825
3.790000E-8	0.003709
3.795000E-8	0.003575
3.800000E-8	0.003203
3.805000E-8	0.002756
3.810000E-8	0.002228
3.815000E-8	0.001794
3.820000E-8	0.001403
3.825000E-8	0.000981
3.830000E-8	0.000678
3.835000E-8	0.000363
3.840000E-8	0.000122
3.845000E-8	0.000125
3.850000E-8	2.187500E-5
3.855000E-8	5.000000E-5
3.860000E-8	0.000228
3.865000E-8	0.000675
3.870000E-8	0.000913
3.875000E-8	0.001222
3.880000E-8	0.001641
3.885000E-8	0.002194
3.890000E-8	0.002647
3.895000E-8	0.003156
3.900000E-8	0.003428
3.905000E-8	0.003800
3.910000E-8	0.003981
3.915000E-8	0.004038
3.920000E-8	0.003775
3.925000E-8	0.003572
3.930000E-8	0.003197
3.935000E-8	0.002703
3.940000E-8	0.002225
3.945000E-8	0.001769
3.950000E-8	0.001256
3.955000E-8	0.000931
3.960000E-8	0.000663
3.965000E-8	0.000416
3.970000E-8	0.000213
3.975000E-8	0.000241
3.980000E-8	8.125000E-5
3.985000E-8	0.000203
3.990000E-8	0.000378
3.995000E-8	0.000700
4.000000E-8	0.001075
4.005000E-8	0.001519
4.010000E-8	0.001713
4.015000E-8	0.002213
4.020000E-8	0.002463
4.025000E-8	0.002881
4.030000E-8	0.003025
4.035000E-8	0.003288
4.040000E-8	0.003413
4.045000E-8	0.003572
4.050000E-8	0.003438
4.055000E-8	0.003294
4.060000E-8	0.003084
4.065000E-8	0.002838
4.070000E-8	0.002341
4.075000E-8	0.001966
4.080000E-8	0.001538
4.085000E-8	0.001112
4.090000E-8	0.000709
4.095000E-8	0.000469
4.100000E-8	0.000159
4.105000E-8	-4.062500E-5
4.110000E-8	-2.500000E-5
4.115000E-8	8.437500E-5
4.120000E-8	0.000294
4.125000E-8	0.000522
4.130000E-8	0.000844
4.135000E-8	0.001219
4.140000E-8	0.001506
4.145000E-8	0.001934
4.150000E-8	0.002219
4.155000E-8	0.002591
4.160000E-8	0.002750
4.165000E-8	0.003075
4.170000E-8	0.003228
4.175000E-8	0.003238
4.180000E-8	0.003241
4.185000E-8	0.003106
4.190000E-8	0.002953
4.195000E-8	0.002763
4.200000E-8	0.002494
4.205000E-8	0.002081
4.210000E-8	0.001678
4.215000E-8	0.001472
4.220000E-8	0.000944
4.225000E-8	0.000713
4.230000E-8	0.000372
4.235000E-8	0.000222
4.240000E-8	9.062500E-5
4.245000E-8	3.437500E-5
4.250000E-8	4.375000E-5
4.255000E-8	0.000338
4.260000E-8	0.000616
4.265000E-8	0.000978
4.270000E-8	0.001400
4.275000E-8	0.001866
4.280000E-8	0.002266
4.285000E-8	0.002638
4.290000E-8	0.002806
4.295000E-8	0.003097
4.300000E-8	0.003359
4.305000E-8	0.003363
4.310000E-8	0.003294
4.315000E-8	0.003184
4.320000E-8	0.003003
4.325000E-8	0.002884
4.330000E-8	0.002525
4.335000E-8	0.002316
4.340000E-8	0.001966
4.345000E-8	0.001644
4.350000E-8	0.001306
4.355000E-8	0.000972
4.360000E-8	0.000656
4.365000E-8	0.000519
4.370000E-8	0.000184
4.375000E-8	0.000213
4.380000E-8	0.000184
4.385000E-8	0.000216
4.390000E-8	0.000306
4.395000E-8	0.000734
4.400000E-8	0.001131
4.405000E-8	0.001419
4.410000E-8	0.001784
4.415000E-8	0.002203
4.420000E-8	0.002675
4.425000E-8	0.003156
4.430000E-8	0.003234
4.435000E-8	0.003341
4.440000E-8	0.003406
4.445000E-8	0.003353
4.450000E-8	0.003084
4.455000E-8	0.002831
4.460000E-8	0.002431
4.465000E-8	0.002094
4.470000E-8	0.001694
4.475000E-8	0.001334
4.480000E-8	0.000984
4.485000E-8	0.000759
4.490000E-8	0.000491
4.495000E-8	0.000331
4.500000E-8	0.000181
4.505000E-8	0.000313
4.510000E-8	0.000278
4.515000E-8	0.000503
4.520000E-8	0.000653
4.525000E-8	0.000922
4.530000E-8	0.001119
4.535000E-8	0.001394
4.540000E-8	0.001694
4.545000E-8	0.001941
4.550000E-8	0.002194
4.555000E-8	0.002469
4.560000E-8	0.002638
4.565000E-8	0.002691
4.570000E-8	0.002853
4.575000E-8	0.002897
4.580000E-8	0.002847
4.585000E-8	0.002828
4.590000E-8	0.002591
4.595000E-8	0.002356
4.600000E-8	0.001969
4.605000E-8	0.001741
4.610000E-8	0.001325
4.615000E-8	0.001138
4.620000E-8	0.000809
4.625000E-8	0.000494
4.630000E-8	0.000253
4.635000E-8	0.000259
4.640000E-8	0.000241
4.645000E-8	0.000384
4.650000E-8	0.000553
4.655000E-8	0.000872
4.660000E-8	0.001122
4.665000E-8	0.001706
4.670000E-8	0.001981
4.675000E-8	0.002384
4.680000E-8	0.002659
4.685000E-8	0.003091
4.690000E-8	0.003334
4.695000E-8	0.003441
4.700000E-8	0.003472
4.705000E-8	0.003375
4.710000E-8	0.003378
4.715000E-8	0.003203
4.720000E-8	0.002934
4.725000E-8	0.002500
4.730000E-8	0.002069
4.735000E-8	0.001697
4.740000E-8	0.001225
4.745000E-8	0.001003
4.750000E-8	0.000794
4.755000E-8	0.000522
4.760000E-8	0.000388
4.765000E-8	0.000319
4.770000E-8	0.000313
4.775000E-8	0.000397
4.780000E-8	0.000522
4.785000E-8	0.000806
4.790000E-8	0.001081
4.795000E-8	0.001384
4.800000E-8	0.001706
4.805000E-8	0.002091
4.810000E-8	0.002441
4.815000E-8	0.002866
4.820000E-8	0.002950
4.825000E-8	0.003197
4.830000E-8	0.003244
4.835000E-8	0.003319
4.840000E-8	0.003109
4.845000E-8	0.003006
4.850000E-8	0.002650
4.855000E-8	0.002325
4.860000E-8	0.001984
4.865000E-8	0.001784
4.870000E-8	0.001425
4.875000E-8	0.001191
4.880000E-8	0.000922
4.885000E-8	0.000803
4.890000E-8	0.000684
4.895000E-8	0.000706
4.900000E-8	0.000719
4.905000E-8	0.000863
4.910000E-8	0.000938
4.915000E-8	0.001175
4.920000E-8	0.001431
4.925000E-8	0.001741
4.930000E-8	0.001984
4.935000E-8	0.002350
4.940000E-8	0.002406
4.945000E-8	0.002638
4.950000E-8	0.002922
4.955000E-8	0.003059
4.960000E-8	0.003113
4.965000E-8	0.003116
4.970000E-8	0.003006
4.975000E-8	0.003038
4.980000E-8	0.002763
4.985000E-8	0.002591
4.990000E-8	0.002225
4.995000E-8	0.002000
5.000000E-8	0.001691
5.005000E-8	0.001416
5.010000E-8	0.001047
5.015000E-8	0.000778
5.020000E-8	0.000697
5.025000E-8	0.000681
5.030000E-8	0.000544
5.035000E-8	0.000663
5.040000E-8	0.000769
5.045000E-8	0.000894
5.050000E-8	0.001050
5.055000E-8	0.001400
5.060000E-8	0.001588
5.065000E-8	0.001963
5.070000E-8	0.002284
5.075000E-8	0.002597
5.080000E-8	0.002772
5.085000E-8	0.002966
5.090000E-8	0.002941
5.095000E-8	0.003150
5.100000E-8	0.003078
5.105000E-8	0.003050
5.110000E-8	0.002856
5.115000E-8	0.002697
5.120000E-8	0.002406
5.125000E-8	0.002141
5.130000E-8	0.001813
5.135000E-8	0.001638
5.140000E-8	0.001209
5.145000E-8	0.000894
5.150000E-8	0.000719
5.155000E-8	0.000544
5.160000E-8	0.000303
5.165000E-8	0.000191
5.170000E-8	0.000222
5.175000E-8	0.000497
5.180000E-8	0.000797
5.185000E-8	0.000963
5.190000E-8	0.001353
5.195000E-8	0.001778
5.200000E-8	0.002009
5.205000E-8	0.002303
5.210000E-8	0.002634
5.215000E-8	0.002909
5.220000E-8	0.003009
5.225000E-8	0.003050
5.230000E-8	0.002934
5.235000E-8	0.002972
5.240000E-8	0.002825
5.245000E-8	0.002634
5.250000E-8	0.002344
5.255000E-8	0.002066
5.260000E-8	0.001687
5.265000E-8	0.001475
5.270000E-8	0.001109
5.275000E-8	0.001003
5.280000E-8	0.000872
5.285000E-8	0.000794
5.290000E-8	0.000606
5.295000E-8	0.000638
5.300000E-8	0.000678
5.305000E-8	0.000984
5.310000E-8	0.001159
5.315000E-8	0.001372
5.320000E-8	0.001625
5.325000E-8	0.001875
5.330000E-8	0.002019
5.335000E-8	0.002334
5.340000E-8	0.002497
5.345000E-8	0.002581
5.350000E-8	0.002666
5.355000E-8	0.002703
5.360000E-8	0.002659
5.365000E-8	0.002625
5.370000E-8	0.002416
5.375000E-8	0.002363
5.380000E-8	0.002206
5.385000E-8	0.002041
5.390000E-8	0.001816
5.395000E-8	0.001594
5.400000E-8	0.001288
5.405000E-8	0.001153
5.410000E-8	0.000841
5.415000E-8	0.000753
5.420000E-8	0.000619
5.425000E-8	0.000584
5.430000E-8	0.000556
5.435000E-8	0.000756
5.440000E-8	0.000797
5.445000E-8	0.001156
5.450000E-8	0.001359
5.455000E-8	0.001672
5.460000E-8	0.001831
5.465000E-8	0.002225
5.470000E-8	0.002434
5.475000E-8	0.002734
5.480000E-8	0.002991
5.485000E-8	0.003053
5.490000E-8	0.003131
5.495000E-8	0.003166
5.500000E-8	0.003069
5.505000E-8	0.002844
5.510000E-8	0.002644
5.515000E-8	0.002397
5.520000E-8	0.002172
5.525000E-8	0.001925
5.530000E-8	0.001475
5.535000E-8	0.001331
5.540000E-8	0.001059
5.545000E-8	0.000928
5.550000E-8	0.000844
5.555000E-8	0.000903
5.560000E-8	0.000756
5.565000E-8	0.000906
5.570000E-8	0.001063
5.575000E-8	0.001281
5.580000E-8	0.001406
5.585000E-8	0.001763
5.590000E-8	0.001897
5.595000E-8	0.002156
5.600000E-8	0.002378
5.605000E-8	0.002572
5.610000E-8	0.002581
5.615000E-8	0.002659
5.620000E-8	0.002600
5.625000E-8	0.002616
5.630000E-8	0.002447
5.635000E-8	0.002453
5.640000E-8	0.002256
5.645000E-8	0.002087
5.650000E-8	0.001797
5.655000E-8	0.001644
5.660000E-8	0.001403
5.665000E-8	0.001222
5.670000E-8	0.000916
5.675000E-8	0.000722
5.680000E-8	0.000516
5.685000E-8	0.000528
5.690000E-8	0.000531
5.695000E-8	0.000650
5.700000E-8	0.000747
5.705000E-8	0.000869
5.710000E-8	0.001250
5.715000E-8	0.001466
5.720000E-8	0.001769
5.725000E-8	0.002081
5.730000E-8	0.002303
5.735000E-8	0.002625
5.740000E-8	0.002838
5.745000E-8	0.002916
5.750000E-8	0.002991
5.755000E-8	0.002991
5.760000E-8	0.002869
5.765000E-8	0.002847
5.770000E-8	0.002634
5.775000E-8	0.002547
5.780000E-8	0.002284
5.785000E-8	0.002156
5.790000E-8	0.001850
5.795000E-8	0.001747
5.800000E-8	0.001550
5.805000E-8	0.001469
5.810000E-8	0.001319
5.815000E-8	0.001294
5.820000E-8	0.001291
5.825000E-8	0.001347
5.830000E-8	0.001388
5.835000E-8	0.001594
5.840000E-8	0.001666
5.845000E-8	0.001856
5.850000E-8	0.002006
5.855000E-8	0.002153
5.860000E-8	0.002197
5.865000E-8	0.002209
5.870000E-8	0.002247
5.875000E-8	0.002284
5.880000E-8	0.002481
5.885000E-8	0.002450
5.890000E-8	0.002291
5.895000E-8	0.002356
5.900000E-8	0.002084
5.905000E-8	0.001919
5.910000E-8	0.001728
5.915000E-8	0.001472
5.920000E-8	0.001381
5.925000E-8	0.001178
5.930000E-8	0.001006
5.935000E-8	0.000947
5.940000E-8	0.000884
5.945000E-8	0.000909
5.950000E-8	0.001047
5.955000E-8	0.001147
5.960000E-8	0.001213
5.965000E-8	0.001497
5.970000E-8	0.001609
5.975000E-8	0.001766
5.980000E-8	0.001838
5.985000E-8	0.002009
5.990000E-8	0.002125
5.995000E-8	0.002319
6.000000E-8	0.002394
6.005000E-8	0.002534
6.010000E-8	0.002437
6.015000E-8	0.002600
6.020000E-8	0.002578
6.025000E-8	0.002659
6.030000E-8	0.002587
6.035000E-8	0.002594
6.040000E-8	0.002319
6.045000E-8	0.002156
6.050000E-8	0.001863
6.055000E-8	0.001622
6.060000E-8	0.001325
6.065000E-8	0.001153
6.070000E-8	0.000931
6.075000E-8	0.000909
6.080000E-8	0.000772
6.085000E-8	0.000875
6.090000E-8	0.001091
6.095000E-8	0.001197
6.100000E-8	0.001369
6.105000E-8	0.001647
6.110000E-8	0.001963
6.115000E-8	0.002181
6.120000E-8	0.002231
6.125000E-8	0.002388
6.130000E-8	0.002434
6.135000E-8	0.002616
6.140000E-8	0.002559
6.145000E-8	0.002575
6.150000E-8	0.002519
6.155000E-8	0.002384
6.160000E-8	0.002378
6.165000E-8	0.002278
6.170000E-8	0.001994
6.175000E-8	0.002016
6.180000E-8	0.001869
6.185000E-8	0.001806
6.190000E-8	0.001641
6.195000E-8	0.001553
6.200000E-8	0.001362
6.205000E-8	0.001344
6.210000E-8	0.001303
6.215000E-8	0.001300
6.220000E-8	0.001416
6.225000E-8	0.001491
6.230000E-8	0.001434
6.235000E-8	0.001591
6.240000E-8	0.001556
6.245000E-8	0.001847
6.250000E-8	0.001963
6.255000E-8	0.002109
6.260000E-8	0.002288
6.265000E-8	0.002406
6.270000E-8	0.002434
6.275000E-8	0.002638
6.280000E-8	0.002697
6.285000E-8	0.002653
6.290000E-8	0.002606
6.295000E-8	0.002522
6.300000E-8	0.002366
6.305000E-8	0.002200
6.310000E-8	0.002016
6.315000E-8	0.001872
6.320000E-8	0.001697
6.325000E-8	0.001572
6.330000E-8	0.001313
6.335000E-8	0.001425
6.340000E-8	0.001359
6.345000E-8	0.001253
6.350000E-8	0.001322
6.355000E-8	0.001422
6.360000E-8	0.001397
6.365000E-8	0.001416
6.370000E-8	0.001553
6.375000E-8	0.001869
6.380000E-8	0.001853
6.385000E-8	0.002103
6.390000E-8	0.002316
6.395000E-8	0.002563
6.400000E-8	0.002556
6.405000E-8	0.002697
6.410000E-8	0.002594
6.415000E-8	0.002591
6.420000E-8	0.002544
6.425000E-8	0.002534
6.430000E-8	0.002372
6.435000E-8	0.002244
6.440000E-8	0.002041
6.445000E-8	0.001784
6.450000E-8	0.001647
6.455000E-8	0.001584
6.460000E-8	0.001394
6.465000E-8	0.001266
6.470000E-8	0.001272
6.475000E-8	0.001297
6.480000E-8	0.001269
6.485000E-8	0.001359
6.490000E-8	0.001375
6.495000E-8	0.001550
6.500000E-8	0.001500
6.505000E-8	0.001716
6.510000E-8	0.001784
6.515000E-8	0.002019
6.520000E-8	0.002216
6.525000E-8	0.002319
6.530000E-8	0.002509
6.535000E-8	0.002463
6.540000E-8	0.002441
6.545000E-8	0.002434
6.550000E-8	0.002350
6.555000E-8	0.002344
6.560000E-8	0.002397
6.565000E-8	0.002175
6.570000E-8	0.001881
6.575000E-8	0.001853
6.580000E-8	0.001681
6.585000E-8	0.001638
6.590000E-8	0.001413
6.595000E-8	0.001403
6.600000E-8	0.001300
6.605000E-8	0.001197
6.610000E-8	0.001191
6.615000E-8	0.001197
6.620000E-8	0.001309
6.625000E-8	0.001419
6.630000E-8	0.001466
6.635000E-8	0.001656
6.640000E-8	0.001838
6.645000E-8	0.001850
6.650000E-8	0.002003
6.655000E-8	0.002203
6.660000E-8	0.002413
6.665000E-8	0.002434
6.670000E-8	0.002475
6.675000E-8	0.002463
6.680000E-8	0.002572
6.685000E-8	0.002591
6.690000E-8	0.002503
6.695000E-8	0.002319
6.700000E-8	0.002116
6.705000E-8	0.001969
6.710000E-8	0.001681
6.715000E-8	0.001491
6.720000E-8	0.001384
6.725000E-8	0.001222
6.730000E-8	0.001047
6.735000E-8	0.001053
6.740000E-8	0.001016
6.745000E-8	0.001134
6.750000E-8	0.001222
6.755000E-8	0.001291
6.760000E-8	0.001456
6.765000E-8	0.001666
6.770000E-8	0.001706
6.775000E-8	0.001856
6.780000E-8	0.002041
6.785000E-8	0.002081
6.790000E-8	0.002125
6.795000E-8	0.002253
6.800000E-8	0.002188
6.805000E-8	0.002237
6.810000E-8	0.002288
6.815000E-8	0.002209
6.820000E-8	0.002025
6.825000E-8	0.002059
6.830000E-8	0.001894
6.835000E-8	0.001884
6.840000E-8	0.001766
6.845000E-8	0.001681
6.850000E-8	0.001559
6.855000E-8	0.001463
6.860000E-8	0.001391
6.865000E-8	0.001434
6.870000E-8	0.001447
6.875000E-8	0.001531
6.880000E-8	0.001459
6.885000E-8	0.001678
6.890000E-8	0.001641
6.895000E-8	0.001794
6.900000E-8	0.001919
6.905000E-8	0.002069
6.910000E-8	0.002138
6.915000E-8	0.002256
6.920000E-8	0.002369
6.925000E-8	0.002434
6.930000E-8	0.002425
6.935000E-8	0.002569
6.940000E-8	0.002453
6.945000E-8	0.002275
6.950000E-8	0.002197
6.955000E-8	0.002159
6.960000E-8	0.002063
6.965000E-8	0.001847
6.970000E-8	0.001716
6.975000E-8	0.001669
6.980000E-8	0.001566
6.985000E-8	0.001588
6.990000E-8	0.001472
6.995000E-8	0.001447
7.000000E-8	0.001484
7.005000E-8	0.001538
7.010000E-8	0.001466
7.015000E-8	0.001569
7.020000E-8	0.001666
7.025000E-8	0.001703
7.030000E-8	0.001822
7.035000E-8	0.002019
7.040000E-8	0.002106
7.045000E-8	0.002244
7.050000E-8	0.002381
7.055000E-8	0.002506
7.060000E-8	0.002491
7.065000E-8	0.002575
7.070000E-8	0.002466
7.075000E-8	0.002516
7.080000E-8	0.002497
7.085000E-8	0.002319
7.090000E-8	0.002087
7.095000E-8	0.001994
7.100000E-8	0.001831
7.105000E-8	0.001722
7.110000E-8	0.001594
7.115000E-8	0.001550
7.120000E-8	0.001600
7.125000E-8	0.001669
7.130000E-8	0.001719
7.135000E-8	0.001791
7.140000E-8	0.001841
7.145000E-8	0.001884
7.150000E-8	0.001969
7.155000E-8	0.002087
7.160000E-8	0.002131
7.165000E-8	0.002194
7.170000E-8	0.002119
7.175000E-8	0.002228
7.180000E-8	0.002278
7.185000E-8	0.002309
7.190000E-8	0.002313
7.195000E-8	0.002375
7.200000E-8	0.002331
7.205000E-8	0.002512
7.210000E-8	0.002372
7.215000E-8	0.002409
7.220000E-8	0.002319
7.225000E-8	0.002272
7.230000E-8	0.002181
7.235000E-8	0.002147
7.240000E-8	0.001894
7.245000E-8	0.001797
7.250000E-8	0.001675
7.255000E-8	0.001578
7.260000E-8	0.001544
7.265000E-8	0.001488
7.270000E-8	0.001497
7.275000E-8	0.001528
7.280000E-8	0.001566
7.285000E-8	0.001703
7.290000E-8	0.001831
7.295000E-8	0.001994
7.300000E-8	0.002063
7.305000E-8	0.002197
7.310000E-8	0.002216
7.315000E-8	0.002291
7.320000E-8	0.002359
7.325000E-8	0.002375
7.330000E-8	0.002347
7.335000E-8	0.002366
7.340000E-8	0.002141
7.345000E-8	0.002153
7.350000E-8	0.002109
7.355000E-8	0.002109
7.360000E-8	0.001906
7.365000E-8	0.001809
7.370000E-8	0.001575
7.375000E-8	0.001528
7.380000E-8	0.001453
7.385000E-8	0.001431
7.390000E-8	0.001431
7.395000E-8	0.001316
7.400000E-8	0.001372
7.405000E-8	0.001450
7.410000E-8	0.001506
7.415000E-8	0.001550
7.420000E-8	0.001584
7.425000E-8	0.001750
7.430000E-8	0.001719
7.435000E-8	0.001894
7.440000E-8	0.001941
7.445000E-8	0.001959
7.450000E-8	0.002031
7.455000E-8	0.002216
7.460000E-8	0.002191
7.465000E-8	0.002141
7.470000E-8	0.002281
7.475000E-8	0.002269
7.480000E-8	0.002138
7.485000E-8	0.002172
7.490000E-8	0.001975
7.495000E-8	0.001922
7.500000E-8	0.001831
7.505000E-8	0.001728
7.510000E-8	0.001588
7.515000E-8	0.001531
7.520000E-8	0.001444
7.525000E-8	0.001538
7.530000E-8	0.001481
7.535000E-8	0.001612
7.540000E-8	0.001566
7.545000E-8	0.001697
7.550000E-8	0.001822
7.555000E-8	0.002041
7.560000E-8	0.002025
7.565000E-8	0.002097
7.570000E-8	0.002125
7.575000E-8	0.002194
7.580000E-8	0.002116
7.585000E-8	0.002113
7.590000E-8	0.002203
7.595000E-8	0.002159
7.600000E-8	0.002034
7.605000E-8	0.002003
7.610000E-8	0.001934
7.615000E-8	0.002034
7.620000E-8	0.001797
7.625000E-8	0.001794
7.630000E-8	0.001641
7.635000E-8	0.001650
7.640000E-8	0.001578
7.645000E-8	0.001625
7.650000E-8	0.001612
7.655000E-8	0.001694
7.660000E-8	0.001716
7.665000E-8	0.001628
7.670000E-8	0.001719
7.675000E-8	0.001828
7.680000E-8	0.001903
7.685000E-8	0.002066
7.690000E-8	0.002009
7.695000E-8	0.002131
7.700000E-8	0.002022
7.705000E-8	0.002094
7.710000E-8	0.002119
7.715000E-8	0.002206
7.720000E-8	0.002025
7.725000E-8	0.001997
7.730000E-8	0.001981
7.735000E-8	0.001856
7.740000E-8	0.001653
7.745000E-8	0.001656
7.750000E-8	0.001547
7.755000E-8	0.001541
7.760000E-8	0.001391
7.765000E-8	0.001325
7.770000E-8	0.001241
7.775000E-8	0.001328
7.780000E-8	0.001394
7.785000E-8	0.001381
7.790000E-8	0.001444
7.795000E-8	0.001641
7.800000E-8	0.001844
7.805000E-8	0.001897
7.810000E-8	0.002044
7.815000E-8	0.002053
7.820000E-8	0.002203
7.825000E-8	0.002322
7.830000E-8	0.002288
7.835000E-8	0.002372
7.840000E-8	0.002366
7.845000E-8	0.002341
7.850000E-8	0.002384
7.855000E-8	0.002422
7.860000E-8	0.002253
7.865000E-8	0.002375
7.870000E-8	0.002197
7.875000E-8	0.002141
7.880000E-8	0.002116
7.885000E-8	0.002041
7.890000E-8	0.001772
7.895000E-8	0.001722
7.900000E-8	0.001453
7.905000E-8	0.001406
7.910000E-8	0.001375
7.915000E-8	0.001416
7.920000E-8	0.001369
7.925000E-8	0.001478
7.930000E-8	0.001391
7.935000E-8	0.001400
7.940000E-8	0.001516
7.945000E-8	0.001697
7.950000E-8	0.001706
7.955000E-8	0.001913
7.960000E-8	0.001969
7.965000E-8	0.002081
7.970000E-8	0.002091
7.975000E-8	0.002106
7.980000E-8	0.002053
7.985000E-8	0.002081
7.990000E-8	0.001863
7.995000E-8	0.001788
8.000000E-8	0.001663
8.005000E-8	0.001616
8.010000E-8	0.001653
8.015000E-8	0.001800
8.020000E-8	0.001687
8.025000E-8	0.001888
8.030000E-8	0.001897
8.035000E-8	0.001956
8.040000E-8	0.001972
8.045000E-8	0.002025
8.050000E-8	0.001822
8.055000E-8	0.001825
8.060000E-8	0.001763
8.065000E-8	0.001756
8.070000E-8	0.001788
8.075000E-8	0.001884
8.080000E-8	0.001991
8.085000E-8	0.002050
8.090000E-8	0.002031
8.095000E-8	0.002294
8.100000E-8	0.002372
8.105000E-8	0.002456
8.110000E-8	0.002569
8.115000E-8	0.002631
8.120000E-8	0.002547
8.125000E-8	0.002409
8.130000E-8	0.002253
8.135000E-8	0.002203
8.140000E-8	0.002075
8.145000E-8	0.001966
8.150000E-8	0.001763
8.155000E-8	0.001625
8.160000E-8	0.001513
8.165000E-8	0.001513
8.170000E-8	0.001503
8.175000E-8	0.001647
8.180000E-8	0.001653
8.185000E-8	0.001791
8.190000E-8	0.001847
8.195000E-8	0.001863
8.200000E-8	0.001894
8.205000E-8	0.001991
8.210000E-8	0.001891
8.215000E-8	0.002047
8.220000E-8	0.001978
8.225000E-8	0.002131
8.230000E-8	0.002150
8.235000E-8	0.002200
8.240000E-8	0.002237
8.245000E-8	0.002313
8.250000E-8	0.002178
8.255000E-8	0.002138
8.260000E-8	0.002012
8.265000E-8	0.001956
8.270000E-8	0.001800
8.275000E-8	0.001697
8.280000E-8	0.001606
8.285000E-8	0.001456
8.290000E-8	0.001488
8.295000E-8	0.001534
8.300000E-8	0.001516
8.305000E-8	0.001519
8.310000E-8	0.001544
8.315000E-8	0.001734
8.320000E-8	0.001756
8.325000E-8	0.001916
8.330000E-8	0.001922
8.335000E-8	0.002103
8.340000E-8	0.002087
8.345000E-8	0.002044
8.350000E-8	0.002184
8.355000E-8	0.002344
8.360000E-8	0.002281
8.365000E-8	0.002353
8.370000E-8	0.002425
8.375000E-8	0.002463
8.380000E-8	0.002509
8.385000E-8	0.002572
8.390000E-8	0.002544
8.395000E-8	0.002472
8.400000E-8	0.002378
8.405000E-8	0.002316
8.410000E-8	0.002144
8.415000E-8	0.002063
8.420000E-8	0.001800
8.425000E-8	0.001797
8.430000E-8	0.001753
8.435000E-8	0.001753
8.440000E-8	0.001778
8.445000E-8	0.001741
8.450000E-8	0.001684
8.455000E-8	0.001866
8.460000E-8	0.001800
8.465000E-8	0.001850
8.470000E-8	0.001913
8.475000E-8	0.002038
8.480000E-8	0.002072
8.485000E-8	0.002241
8.490000E-8	0.002153
8.495000E-8	0.002253
8.500000E-8	0.002228
8.505000E-8	0.002369
8.510000E-8	0.002366
8.515000E-8	0.002328
8.520000E-8	0.002269
8.525000E-8	0.002234
8.530000E-8	0.002097
8.535000E-8	0.002047
8.540000E-8	0.001991
8.545000E-8	0.001944
8.550000E-8	0.001834
8.555000E-8	0.001759
8.560000E-8	0.001775
8.565000E-8	0.001719
8.570000E-8	0.001716
8.575000E-8	0.001831
8.580000E-8	0.001747
8.585000E-8	0.001844
8.590000E-8	0.001863
8.595000E-8	0.001922
8.600000E-8	0.001888
8.605000E-8	0.001944
8.610000E-8	0.001947
8.615000E-8	0.002038
8.620000E-8	0.001972
8.625000E-8	0.002159
8.630000E-8	0.002153
8.635000E-8	0.002166
8.640000E-8	0.002131
8.645000E-8	0.002128
8.650000E-8	0.002034
8.655000E-8	0.001997
8.660000E-8	0.001934
8.665000E-8	0.001844
8.670000E-8	0.001809
8.675000E-8	0.001734
8.680000E-8	0.001731
8.685000E-8	0.001616
8.690000E-8	0.001603
8.695000E-8	0.001566
8.700000E-8	0.001609
8.705000E-8	0.001694
8.710000E-8	0.001756
8.715000E-8	0.001756
8.720000E-8	0.001894
8.725000E-8	0.001994
8.730000E-8	0.001941
8.735000E-8	0.001906
8.740000E-8	0.001928
8.745000E-8	0.001934
8.750000E-8	0.001909
8.755000E-8	0.001894
8.760000E-8	0.001728
8.765000E-8	0.001806
8.770000E-8	0.001900
8.775000E-8	0.001925
8.780000E-8	0.001984
8.785000E-8	0.001988
8.790000E-8	0.002056
8.795000E-8	0.002138
8.800000E-8	0.002063
8.805000E-8	0.001922
8.810000E-8	0.001825
8.815000E-8	0.001713
8.820000E-8	0.001609
8.825000E-8	0.001597
8.830000E-8	0.001575
8.835000E-8	0.001675
8.840000E-8	0.001703
8.845000E-8	0.001706
8.850000E-8	0.001794
8.855000E-8	0.001872
8.860000E-8	0.001913
8.865000E-8	0.002047
8.870000E-8	0.002044
8.875000E-8	0.002066
8.880000E-8	0.002231
8.885000E-8	0.002231
8.890000E-8	0.002169
8.895000E-8	0.002225
8.900000E-8	0.002203
8.905000E-8	0.002306
8.910000E-8	0.002291
8.915000E-8	0.002209
8.920000E-8	0.002059
8.925000E-8	0.002006
8.930000E-8	0.001878
8.935000E-8	0.001925
8.940000E-8	0.001806
8.945000E-8	0.001753
8.950000E-8	0.001609
8.955000E-8	0.001656
8.960000E-8	0.001628
8.965000E-8	0.001687
8.970000E-8	0.001719
8.975000E-8	0.001769
8.980000E-8	0.001750
8.985000E-8	0.001878
8.990000E-8	0.001756
8.995000E-8	0.001850
9.000000E-8	0.001913
9.005000E-8	0.001853
9.010000E-8	0.001794
9.015000E-8	0.001966
9.020000E-8	0.001972
9.025000E-8	0.002069
9.030000E-8	0.002113
9.035000E-8	0.002291
9.040000E-8	0.002278
9.045000E-8	0.002281
9.050000E-8	0.002228
9.055000E-8	0.002316
9.060000E-8	0.002169
9.065000E-8	0.002259
9.070000E-8	0.001853
9.075000E-8	0.001766
9.080000E-8	0.001675
9.085000E-8	0.001778
9.090000E-8	0.001559
9.095000E-8	0.001584
9.100000E-8	0.001531
9.105000E-8	0.001631
9.110000E-8	0.001719
9.115000E-8	0.001797
9.120000E-8	0.001778
9.125000E-8	0.001847
9.130000E-8	0.001931
9.135000E-8	0.001963
9.140000E-8	0.002016
9.145000E-8	0.002066
9.150000E-8	0.002094
9.155000E-8	0.002138
9.160000E-8	0.002119
9.165000E-8	0.002038
9.170000E-8	0.002050
9.175000E-8	0.002009
9.180000E-8	0.001888
9.185000E-8	0.001806
9.190000E-8	0.001709
9.195000E-8	0.001713
9.200000E-8	0.001575
9.205000E-8	0.001647
9.210000E-8	0.001603
9.215000E-8	0.001547
9.220000E-8	0.001641
9.225000E-8	0.001772
9.230000E-8	0.001794
9.235000E-8	0.001794
9.240000E-8	0.001788
9.245000E-8	0.001722
9.250000E-8	0.001813
9.255000E-8	0.001884
9.260000E-8	0.001831
9.265000E-8	0.001831
9.270000E-8	0.001834
9.275000E-8	0.001825
9.280000E-8	0.001931
9.285000E-8	0.001950
9.290000E-8	0.002069
9.295000E-8	0.002113
9.300000E-8	0.002106
9.305000E-8	0.002087
9.310000E-8	0.002119
9.315000E-8	0.002169
9.320000E-8	0.002122
9.325000E-8	0.002100
9.330000E-8	0.001925
9.335000E-8	0.001869
9.340000E-8	0.001728
9.345000E-8	0.001572
9.350000E-8	0.001503
9.355000E-8	0.001509
9.360000E-8	0.001441
9.365000E-8	0.001472
9.370000E-8	0.001466
9.375000E-8	0.001616
9.380000E-8	0.001656
9.385000E-8	0.001753
9.390000E-8	0.001875
9.395000E-8	0.002044
9.400000E-8	0.002034
9.405000E-8	0.002134
9.410000E-8	0.002234
9.415000E-8	0.002206
9.420000E-8	0.002178
9.425000E-8	0.002159
9.430000E-8	0.002084
9.435000E-8	0.002066
9.440000E-8	0.001900
9.445000E-8	0.001703
9.450000E-8	0.001631
9.455000E-8	0.001550
9.460000E-8	0.001366
9.465000E-8	0.001291
9.470000E-8	0.001159
9.475000E-8	0.001078
9.480000E-8	0.001066
9.485000E-8	0.001084
9.490000E-8	0.001131
9.495000E-8	0.001203
9.500000E-8	0.001284
9.505000E-8	0.001391
9.510000E-8	0.001381
9.515000E-8	0.001550
9.520000E-8	0.001572
9.525000E-8	0.001769
9.530000E-8	0.001713
9.535000E-8	0.001816
9.540000E-8	0.001841
9.545000E-8	0.002047
9.550000E-8	0.001997
9.555000E-8	0.001991
9.560000E-8	0.001919
9.565000E-8	0.001822
9.570000E-8	0.001750
9.575000E-8	0.001744
9.580000E-8	0.001534
9.585000E-8	0.001528
9.590000E-8	0.001519
9.595000E-8	0.001550
9.600000E-8	0.001459
9.605000E-8	0.001563
9.610000E-8	0.001588
9.615000E-8	0.001734
9.620000E-8	0.001738
9.625000E-8	0.001838
9.630000E-8	0.001847
9.635000E-8	0.001931
9.640000E-8	0.002019
9.645000E-8	0.002116
9.650000E-8	0.002197
9.655000E-8	0.002228
9.660000E-8	0.002203
9.665000E-8	0.002253
9.670000E-8	0.002244
9.675000E-8	0.002275
9.680000E-8	0.002250
9.685000E-8	0.002225
9.690000E-8	0.002181
9.695000E-8	0.002138
9.700000E-8	0.002075
9.705000E-8	0.002066
9.710000E-8	0.001913
9.715000E-8	0.001991
9.720000E-8	0.001866
9.725000E-8	0.001819
9.730000E-8	0.001669
9.735000E-8	0.001628
9.740000E-8	0.001413
9.745000E-8	0.001375
9.750000E-8	0.001275
9.755000E-8	0.001384
9.760000E-8	0.001353
9.765000E-8	0.001422
9.770000E-8	0.001500
9.775000E-8	0.001597
9.780000E-8	0.001653
9.785000E-8	0.001909
9.790000E-8	0.001944
9.795000E-8	0.002087
9.800000E-8	0.002128
9.805000E-8	0.002256
9.810000E-8	0.002203
9.815000E-8	0.002300
9.820000E-8	0.002294
9.825000E-8	0.002416
9.830000E-8	0.002322
9.835000E-8	0.002344
9.840000E-8	0.002350
9.845000E-8	0.002350
9.850000E-8	0.002141
9.855000E-8	0.002053
9.860000E-8	0.002063
9.865000E-8	0.002159
9.870000E-8	0.001972
9.875000E-8	0.001934
9.880000E-8	0.001756
9.885000E-8	0.001791
9.890000E-8	0.001569
9.895000E-8	0.001638
9.900000E-8	0.001641
9.905000E-8	0.001759
9.910000E-8	0.001853
9.915000E-8	0.001897
9.920000E-8	0.001947
9.925000E-8	0.001950
9.930000E-8	0.002038
9.935000E-8	0.002141
9.940000E-8	0.002344
9.945000E-8	0.002344
9.950000E-8	0.002406
9.955000E-8	0.002325
9.960000E-8	0.002294
9.965000E-8	0.002275
9.970000E-8	0.002128
9.975000E-8	0.002147
9.980000E-8	0.002128
9.985000E-8	0.001953
9.990000E-8	0.001906
9.995000E-8	0.001878
