LabVIEW Measurement	
Writer_Version	2
Reader_Version	2
Separator	Tab
Decimal_Separator	.
Multi_Headings	No
X_Columns	Multi
Time_Pref	Relative
Operator	TG lab
Date	2015/03/06
Time	16:39:53.4608426094055175781
***End_of_Header***	
	
Channels	1	
Samples	2000	
Date	1903/12/31	
Time	19:00:00	
X_Dimension	Time	
X0	0.0000000000000000E+0	
Delta_X	5.000000E-11	
***End_of_Header***		
X_Value	Untitled	Comment
0.000000	0.002325
5.000000E-11	0.002359
1.000000E-10	0.002313
1.500000E-10	0.002356
2.000000E-10	0.002331
2.500000E-10	0.002334
3.000000E-10	0.002456
3.500000E-10	0.002447
4.000000E-10	0.002447
4.500000E-10	0.002503
5.000000E-10	0.002534
5.500000E-10	0.002556
6.000000E-10	0.002544
6.500000E-10	0.002556
7.000000E-10	0.002488
7.500000E-10	0.002509
8.000000E-10	0.002581
8.500000E-10	0.002484
9.000000E-10	0.002391
9.500000E-10	0.002428
1.000000E-9	0.002375
1.050000E-9	0.002391
1.100000E-9	0.002375
1.150000E-9	0.002344
1.200000E-9	0.002437
1.250000E-9	0.002437
1.300000E-9	0.002459
1.350000E-9	0.002441
1.400000E-9	0.002434
1.450000E-9	0.002453
1.500000E-9	0.002409
1.550000E-9	0.002441
1.600000E-9	0.002369
1.650000E-9	0.002303
1.700000E-9	0.002272
1.750000E-9	0.002213
1.800000E-9	0.002203
1.850000E-9	0.002209
1.900000E-9	0.002184
1.950000E-9	0.002247
2.000000E-9	0.002188
2.050000E-9	0.002278
2.100000E-9	0.002294
2.150000E-9	0.002281
2.200000E-9	0.002241
2.250000E-9	0.002244
2.300000E-9	0.002288
2.350000E-9	0.002300
2.400000E-9	0.002244
2.450000E-9	0.002237
2.500000E-9	0.002291
2.550000E-9	0.002378
2.600000E-9	0.002334
2.650000E-9	0.002478
2.700000E-9	0.002437
2.750000E-9	0.002428
2.800000E-9	0.002425
2.850000E-9	0.002472
2.900000E-9	0.002400
2.950000E-9	0.002509
3.000000E-9	0.002597
3.050000E-9	0.002600
3.100000E-9	0.002731
3.150000E-9	0.002813
3.200000E-9	0.002819
3.250000E-9	0.002838
3.300000E-9	0.002869
3.350000E-9	0.002806
3.400000E-9	0.002706
3.450000E-9	0.002603
3.500000E-9	0.002441
3.550000E-9	0.002359
3.600000E-9	0.002209
3.650000E-9	0.002219
3.700000E-9	0.002284
3.750000E-9	0.002422
3.800000E-9	0.002531
3.850000E-9	0.002534
3.900000E-9	0.002528
3.950000E-9	0.002653
4.000000E-9	0.002584
4.050000E-9	0.002681
4.100000E-9	0.002563
4.150000E-9	0.002453
4.200000E-9	0.002294
4.250000E-9	0.002144
4.300000E-9	0.002056
4.350000E-9	0.002022
4.400000E-9	0.002034
4.450000E-9	0.001997
4.500000E-9	0.001981
4.550000E-9	0.002000
4.600000E-9	0.002075
4.650000E-9	0.002053
4.700000E-9	0.001984
4.750000E-9	0.002069
4.800000E-9	0.002028
4.850000E-9	0.001934
4.900000E-9	0.001897
4.950000E-9	0.001869
5.000000E-9	0.001863
5.050000E-9	0.001875
5.100000E-9	0.001878
5.150000E-9	0.001909
5.200000E-9	0.001891
5.250000E-9	0.002000
5.300000E-9	0.002087
5.350000E-9	0.002169
5.400000E-9	0.002100
5.450000E-9	0.002222
5.500000E-9	0.002178
5.550000E-9	0.002250
5.600000E-9	0.002328
5.650000E-9	0.002322
5.700000E-9	0.002384
5.750000E-9	0.002363
5.800000E-9	0.002184
5.850000E-9	0.002103
5.900000E-9	0.001925
5.950000E-9	0.001875
6.000000E-9	0.001819
6.050000E-9	0.001763
6.100000E-9	0.001794
6.150000E-9	0.001859
6.200000E-9	0.001828
6.250000E-9	0.001934
6.300000E-9	0.002078
6.350000E-9	0.002116
6.400000E-9	0.002034
6.450000E-9	0.001934
6.500000E-9	0.002003
6.550000E-9	0.001994
6.600000E-9	0.001941
6.650000E-9	0.001931
6.700000E-9	0.001894
6.750000E-9	0.001931
6.800000E-9	0.001994
6.850000E-9	0.001856
6.900000E-9	0.002094
6.950000E-9	0.002216
7.000000E-9	0.002313
7.050000E-9	0.002372
7.100000E-9	0.002356
7.150000E-9	0.002522
7.200000E-9	0.002641
7.250000E-9	0.002781
7.300000E-9	0.002988
7.350000E-9	0.003216
7.400000E-9	0.003413
7.450000E-9	0.003809
7.500000E-9	0.004178
7.550000E-9	0.004559
7.600000E-9	0.004713
7.650000E-9	0.004934
7.700000E-9	0.004997
7.750000E-9	0.004744
7.800000E-9	0.004247
7.850000E-9	0.003338
7.900000E-9	0.002034
7.950000E-9	0.000219
8.000000E-9	-0.002066
8.050000E-9	-0.004525
8.100000E-9	-0.007391
8.150000E-9	-0.010494
8.200000E-9	-0.013831
8.250000E-9	-0.017109
8.300000E-9	-0.020122
8.350000E-9	-0.022681
8.400000E-9	-0.024847
8.450000E-9	-0.026378
8.500000E-9	-0.027531
8.550000E-9	-0.027597
8.600000E-9	-0.027225
8.650000E-9	-0.026119
8.700000E-9	-0.024459
8.750000E-9	-0.022616
8.800000E-9	-0.020625
8.850000E-9	-0.018669
8.900000E-9	-0.016897
8.950000E-9	-0.015409
9.000000E-9	-0.014650
9.050000E-9	-0.014156
9.100000E-9	-0.014200
9.150000E-9	-0.014613
9.200000E-9	-0.015375
9.250000E-9	-0.016166
9.300000E-9	-0.017000
9.350000E-9	-0.017731
9.400000E-9	-0.018097
9.450000E-9	-0.018253
9.500000E-9	-0.017916
9.550000E-9	-0.017409
9.600000E-9	-0.016434
9.650000E-9	-0.015228
9.700000E-9	-0.013831
9.750000E-9	-0.012231
9.800000E-9	-0.010741
9.850000E-9	-0.009353
9.900000E-9	-0.008147
9.950000E-9	-0.007334
1.000000E-8	-0.006831
1.005000E-8	-0.006684
1.010000E-8	-0.006675
1.015000E-8	-0.007025
1.020000E-8	-0.007641
1.025000E-8	-0.008469
1.030000E-8	-0.009022
1.035000E-8	-0.009509
1.040000E-8	-0.009888
1.045000E-8	-0.010059
1.050000E-8	-0.009963
1.055000E-8	-0.009453
1.060000E-8	-0.008738
1.065000E-8	-0.007741
1.070000E-8	-0.006875
1.075000E-8	-0.005744
1.080000E-8	-0.004644
1.085000E-8	-0.003628
1.090000E-8	-0.002934
1.095000E-8	-0.002303
1.100000E-8	-0.002047
1.105000E-8	-0.002125
1.110000E-8	-0.002500
1.115000E-8	-0.003012
1.120000E-8	-0.003775
1.125000E-8	-0.004447
1.130000E-8	-0.005175
1.135000E-8	-0.005825
1.140000E-8	-0.006213
1.145000E-8	-0.006500
1.150000E-8	-0.006344
1.155000E-8	-0.005919
1.160000E-8	-0.005275
1.165000E-8	-0.004297
1.170000E-8	-0.003428
1.175000E-8	-0.002491
1.180000E-8	-0.001619
1.185000E-8	-0.000781
1.190000E-8	-0.000219
1.195000E-8	0.000194
1.200000E-8	0.000359
1.205000E-8	0.000100
1.210000E-8	-0.000241
1.215000E-8	-0.000766
1.220000E-8	-0.001434
1.225000E-8	-0.002131
1.230000E-8	-0.002875
1.235000E-8	-0.003316
1.240000E-8	-0.003691
1.245000E-8	-0.003772
1.250000E-8	-0.003809
1.255000E-8	-0.003428
1.260000E-8	-0.002916
1.265000E-8	-0.002203
1.270000E-8	-0.001500
1.275000E-8	-0.000625
1.280000E-8	5.625000E-5
1.285000E-8	0.000734
1.290000E-8	0.001266
1.295000E-8	0.001584
1.300000E-8	0.001522
1.305000E-8	0.001453
1.310000E-8	0.001084
1.315000E-8	0.000591
1.320000E-8	-0.000209
1.325000E-8	-0.000909
1.330000E-8	-0.001522
1.335000E-8	-0.002087
1.340000E-8	-0.002484
1.345000E-8	-0.002722
1.350000E-8	-0.002609
1.355000E-8	-0.002206
1.360000E-8	-0.001647
1.365000E-8	-0.000894
1.370000E-8	3.750000E-5
1.375000E-8	0.000800
1.380000E-8	0.001600
1.385000E-8	0.002325
1.390000E-8	0.002775
1.395000E-8	0.003084
1.400000E-8	0.003019
1.405000E-8	0.002722
1.410000E-8	0.002166
1.415000E-8	0.001503
1.420000E-8	0.000681
1.425000E-8	-0.000103
1.430000E-8	-0.000866
1.435000E-8	-0.001381
1.440000E-8	-0.001816
1.445000E-8	-0.001934
1.450000E-8	-0.001847
1.455000E-8	-0.001413
1.460000E-8	-0.000763
1.465000E-8	-1.562500E-5
1.470000E-8	0.000844
1.475000E-8	0.001687
1.480000E-8	0.002450
1.485000E-8	0.003178
1.490000E-8	0.003466
1.495000E-8	0.003563
1.500000E-8	0.003431
1.505000E-8	0.003006
1.510000E-8	0.002437
1.515000E-8	0.001741
1.520000E-8	0.000875
1.525000E-8	6.562500E-5
1.530000E-8	-0.000763
1.535000E-8	-0.001247
1.540000E-8	-0.001559
1.545000E-8	-0.001556
1.550000E-8	-0.001250
1.555000E-8	-0.000737
1.560000E-8	0.000000
1.565000E-8	0.000744
1.570000E-8	0.001653
1.575000E-8	0.002550
1.580000E-8	0.003281
1.585000E-8	0.003844
1.590000E-8	0.004094
1.595000E-8	0.004138
1.600000E-8	0.003834
1.605000E-8	0.003256
1.610000E-8	0.002594
1.615000E-8	0.001703
1.620000E-8	0.000875
1.625000E-8	0.000106
1.630000E-8	-0.000600
1.635000E-8	-0.000994
1.640000E-8	-0.001122
1.645000E-8	-0.000872
1.650000E-8	-0.000419
1.655000E-8	0.000272
1.660000E-8	0.001119
1.665000E-8	0.002153
1.670000E-8	0.002975
1.675000E-8	0.003747
1.680000E-8	0.004350
1.685000E-8	0.004650
1.690000E-8	0.004613
1.695000E-8	0.004316
1.700000E-8	0.003722
1.705000E-8	0.003044
1.710000E-8	0.002175
1.715000E-8	0.001300
1.720000E-8	0.000528
1.725000E-8	-1.875000E-5
1.730000E-8	-0.000622
1.735000E-8	-0.000778
1.740000E-8	-0.000766
1.745000E-8	-0.000316
1.750000E-8	0.000156
1.755000E-8	0.000853
1.760000E-8	0.001700
1.765000E-8	0.002556
1.770000E-8	0.003313
1.775000E-8	0.003931
1.780000E-8	0.004253
1.785000E-8	0.004303
1.790000E-8	0.004219
1.795000E-8	0.003753
1.800000E-8	0.003031
1.805000E-8	0.002284
1.810000E-8	0.001419
1.815000E-8	0.000713
1.820000E-8	0.000000
1.825000E-8	-0.000453
1.830000E-8	-0.000622
1.835000E-8	-0.000616
1.840000E-8	-0.000309
1.845000E-8	0.000156
1.850000E-8	0.000800
1.855000E-8	0.001603
1.860000E-8	0.002322
1.865000E-8	0.003081
1.870000E-8	0.003784
1.875000E-8	0.004184
1.880000E-8	0.004381
1.885000E-8	0.004275
1.890000E-8	0.003984
1.895000E-8	0.003509
1.900000E-8	0.002881
1.905000E-8	0.002087
1.910000E-8	0.001338
1.915000E-8	0.000525
1.920000E-8	-3.125000E-6
1.925000E-8	-0.000313
1.930000E-8	-0.000453
1.935000E-8	-0.000372
1.940000E-8	-9.375000E-6
1.945000E-8	0.000503
1.950000E-8	0.001003
1.955000E-8	0.001906
1.960000E-8	0.002675
1.965000E-8	0.003488
1.970000E-8	0.003894
1.975000E-8	0.004419
1.980000E-8	0.004588
1.985000E-8	0.004516
1.990000E-8	0.004253
1.995000E-8	0.003656
2.000000E-8	0.002966
2.005000E-8	0.002447
2.010000E-8	0.001638
2.015000E-8	0.001006
2.020000E-8	0.000509
2.025000E-8	0.000244
2.030000E-8	0.000172
2.035000E-8	0.000269
2.040000E-8	0.000459
2.045000E-8	0.001016
2.050000E-8	0.001634
2.055000E-8	0.002256
2.060000E-8	0.002834
2.065000E-8	0.003544
2.070000E-8	0.003978
2.075000E-8	0.004194
2.080000E-8	0.004262
2.085000E-8	0.004144
2.090000E-8	0.003753
2.095000E-8	0.003069
2.100000E-8	0.002425
2.105000E-8	0.001666
2.110000E-8	0.000797
2.115000E-8	0.000250
2.120000E-8	-0.000228
2.125000E-8	-0.000431
2.130000E-8	-0.000412
2.135000E-8	-1.875000E-5
2.140000E-8	0.000447
2.145000E-8	0.001091
2.150000E-8	0.001778
2.155000E-8	0.002563
2.160000E-8	0.003291
2.165000E-8	0.003709
2.170000E-8	0.004094
2.175000E-8	0.004253
2.180000E-8	0.004134
2.185000E-8	0.003831
2.190000E-8	0.003359
2.195000E-8	0.002756
2.200000E-8	0.001953
2.205000E-8	0.001297
2.210000E-8	0.000594
2.215000E-8	0.000166
2.220000E-8	-5.625000E-5
2.225000E-8	-7.500000E-5
2.230000E-8	6.250000E-5
2.235000E-8	0.000453
2.240000E-8	0.001144
2.245000E-8	0.001916
2.250000E-8	0.002659
2.255000E-8	0.003434
2.260000E-8	0.003931
2.265000E-8	0.004369
2.270000E-8	0.004597
2.275000E-8	0.004550
2.280000E-8	0.004262
2.285000E-8	0.003775
2.290000E-8	0.003069
2.295000E-8	0.002375
2.300000E-8	0.001647
2.305000E-8	0.000869
2.310000E-8	0.000275
2.315000E-8	-6.250000E-6
2.320000E-8	-0.000303
2.325000E-8	-5.937500E-5
2.330000E-8	0.000313
2.335000E-8	0.000913
2.340000E-8	0.001566
2.345000E-8	0.002294
2.350000E-8	0.002906
2.355000E-8	0.003631
2.360000E-8	0.004234
2.365000E-8	0.004534
2.370000E-8	0.004475
2.375000E-8	0.004247
2.380000E-8	0.003891
2.385000E-8	0.003363
2.390000E-8	0.002650
2.395000E-8	0.002022
2.400000E-8	0.001359
2.405000E-8	0.000616
2.410000E-8	0.000175
2.415000E-8	1.250000E-5
2.420000E-8	-2.812500E-5
2.425000E-8	-9.375000E-6
2.430000E-8	0.000338
2.435000E-8	0.000909
2.440000E-8	0.001422
2.445000E-8	0.002141
2.450000E-8	0.002744
2.455000E-8	0.003391
2.460000E-8	0.003806
2.465000E-8	0.004056
2.470000E-8	0.004041
2.475000E-8	0.003903
2.480000E-8	0.003481
2.485000E-8	0.002972
2.490000E-8	0.002231
2.495000E-8	0.001638
2.500000E-8	0.000856
2.505000E-8	0.000400
2.510000E-8	3.125000E-5
2.515000E-8	-0.000109
2.520000E-8	-6.250000E-6
2.525000E-8	0.000403
2.530000E-8	0.000822
2.535000E-8	0.001422
2.540000E-8	0.002263
2.545000E-8	0.002859
2.550000E-8	0.003431
2.555000E-8	0.003881
2.560000E-8	0.004316
2.565000E-8	0.004384
2.570000E-8	0.004325
2.575000E-8	0.004078
2.580000E-8	0.003572
2.585000E-8	0.002959
2.590000E-8	0.002244
2.595000E-8	0.001506
2.600000E-8	0.000922
2.605000E-8	0.000694
2.610000E-8	0.000494
2.615000E-8	0.000578
2.620000E-8	0.000816
2.625000E-8	0.001241
2.630000E-8	0.001791
2.635000E-8	0.002416
2.640000E-8	0.003022
2.645000E-8	0.003550
2.650000E-8	0.004006
2.655000E-8	0.004369
2.660000E-8	0.004278
2.665000E-8	0.004213
2.670000E-8	0.003853
2.675000E-8	0.003406
2.680000E-8	0.002875
2.685000E-8	0.002331
2.690000E-8	0.001650
2.695000E-8	0.001213
2.700000E-8	0.000797
2.705000E-8	0.000625
2.710000E-8	0.000478
2.715000E-8	0.000553
2.720000E-8	0.000659
2.725000E-8	0.001147
2.730000E-8	0.001716
2.735000E-8	0.002203
2.740000E-8	0.002769
2.745000E-8	0.003378
2.750000E-8	0.003731
2.755000E-8	0.003919
2.760000E-8	0.004022
2.765000E-8	0.003916
2.770000E-8	0.003666
2.775000E-8	0.003422
2.780000E-8	0.002800
2.785000E-8	0.002191
2.790000E-8	0.001656
2.795000E-8	0.001181
2.800000E-8	0.000772
2.805000E-8	0.000494
2.810000E-8	0.000391
2.815000E-8	0.000431
2.820000E-8	0.000678
2.825000E-8	0.001181
2.830000E-8	0.001672
2.835000E-8	0.002341
2.840000E-8	0.002966
2.845000E-8	0.003594
2.850000E-8	0.003950
2.855000E-8	0.004231
2.860000E-8	0.004150
2.865000E-8	0.004044
2.870000E-8	0.003709
2.875000E-8	0.003253
2.880000E-8	0.002522
2.885000E-8	0.001859
2.890000E-8	0.001288
2.895000E-8	0.000900
2.900000E-8	0.000553
2.905000E-8	0.000406
2.910000E-8	0.000400
2.915000E-8	0.000597
2.920000E-8	0.001031
2.925000E-8	0.001506
2.930000E-8	0.002147
2.935000E-8	0.002747
2.940000E-8	0.003272
2.945000E-8	0.003781
2.950000E-8	0.003975
2.955000E-8	0.004000
2.960000E-8	0.003809
2.965000E-8	0.003434
2.970000E-8	0.002944
2.975000E-8	0.002437
2.980000E-8	0.001869
2.985000E-8	0.001297
2.990000E-8	0.000866
2.995000E-8	0.000425
3.000000E-8	0.000191
3.005000E-8	7.812500E-5
3.010000E-8	0.000256
3.015000E-8	0.000703
3.020000E-8	0.001169
3.025000E-8	0.001759
3.030000E-8	0.002356
3.035000E-8	0.002978
3.040000E-8	0.003531
3.045000E-8	0.003944
3.050000E-8	0.004081
3.055000E-8	0.004056
3.060000E-8	0.003906
3.065000E-8	0.003525
3.070000E-8	0.003022
3.075000E-8	0.002463
3.080000E-8	0.001838
3.085000E-8	0.001266
3.090000E-8	0.000984
3.095000E-8	0.000675
3.100000E-8	0.000475
3.105000E-8	0.000456
3.110000E-8	0.000775
3.115000E-8	0.001166
3.120000E-8	0.001731
3.125000E-8	0.002363
3.130000E-8	0.002981
3.135000E-8	0.003656
3.140000E-8	0.003944
3.145000E-8	0.004237
3.150000E-8	0.004325
3.155000E-8	0.004159
3.160000E-8	0.003794
3.165000E-8	0.003372
3.170000E-8	0.002856
3.175000E-8	0.002203
3.180000E-8	0.001644
3.185000E-8	0.001166
3.190000E-8	0.000794
3.195000E-8	0.000609
3.200000E-8	0.000597
3.205000E-8	0.000747
3.210000E-8	0.000975
3.215000E-8	0.001481
3.220000E-8	0.001888
3.225000E-8	0.002328
3.230000E-8	0.002891
3.235000E-8	0.003313
3.240000E-8	0.003659
3.245000E-8	0.003847
3.250000E-8	0.003881
3.255000E-8	0.003766
3.260000E-8	0.003453
3.265000E-8	0.003031
3.270000E-8	0.002397
3.275000E-8	0.001906
3.280000E-8	0.001409
3.285000E-8	0.001184
3.290000E-8	0.000781
3.295000E-8	0.000741
3.300000E-8	0.000734
3.305000E-8	0.001019
3.310000E-8	0.001294
3.315000E-8	0.001784
3.320000E-8	0.002272
3.325000E-8	0.002809
3.330000E-8	0.003159
3.335000E-8	0.003559
3.340000E-8	0.003859
3.345000E-8	0.003931
3.350000E-8	0.003759
3.355000E-8	0.003478
3.360000E-8	0.003072
3.365000E-8	0.002581
3.370000E-8	0.002066
3.375000E-8	0.001666
3.380000E-8	0.001119
3.385000E-8	0.000844
3.390000E-8	0.000741
3.395000E-8	0.000725
3.400000E-8	0.000938
3.405000E-8	0.001247
3.410000E-8	0.001672
3.415000E-8	0.002228
3.420000E-8	0.002606
3.425000E-8	0.003122
3.430000E-8	0.003544
3.435000E-8	0.003738
3.440000E-8	0.003772
3.445000E-8	0.003659
3.450000E-8	0.003438
3.455000E-8	0.003119
3.460000E-8	0.002741
3.465000E-8	0.002194
3.470000E-8	0.001813
3.475000E-8	0.001400
3.480000E-8	0.001025
3.485000E-8	0.000847
3.490000E-8	0.000656
3.495000E-8	0.000741
3.500000E-8	0.000925
3.505000E-8	0.001172
3.510000E-8	0.001538
3.515000E-8	0.001997
3.520000E-8	0.002406
3.525000E-8	0.002791
3.530000E-8	0.003178
3.535000E-8	0.003391
3.540000E-8	0.003359
3.545000E-8	0.003313
3.550000E-8	0.003091
3.555000E-8	0.002853
3.560000E-8	0.002369
3.565000E-8	0.001941
3.570000E-8	0.001541
3.575000E-8	0.001281
3.580000E-8	0.000872
3.585000E-8	0.000778
3.590000E-8	0.000753
3.595000E-8	0.000734
3.600000E-8	0.000963
3.605000E-8	0.001319
3.610000E-8	0.001609
3.615000E-8	0.002078
3.620000E-8	0.002566
3.625000E-8	0.002972
3.630000E-8	0.003369
3.635000E-8	0.003641
3.640000E-8	0.003675
3.645000E-8	0.003600
3.650000E-8	0.003397
3.655000E-8	0.003063
3.660000E-8	0.002722
3.665000E-8	0.002331
3.670000E-8	0.001800
3.675000E-8	0.001481
3.680000E-8	0.001147
3.685000E-8	0.001022
3.690000E-8	0.000972
3.695000E-8	0.001134
3.700000E-8	0.001400
3.705000E-8	0.001678
3.710000E-8	0.002097
3.715000E-8	0.002625
3.720000E-8	0.002897
3.725000E-8	0.003197
3.730000E-8	0.003394
3.735000E-8	0.003522
3.740000E-8	0.003453
3.745000E-8	0.003216
3.750000E-8	0.002816
3.755000E-8	0.002488
3.760000E-8	0.001981
3.765000E-8	0.001556
3.770000E-8	0.001244
3.775000E-8	0.000884
3.780000E-8	0.000750
3.785000E-8	0.000794
3.790000E-8	0.000841
3.795000E-8	0.001034
3.800000E-8	0.001369
3.805000E-8	0.001966
3.810000E-8	0.002294
3.815000E-8	0.002769
3.820000E-8	0.003059
3.825000E-8	0.003350
3.830000E-8	0.003419
3.835000E-8	0.003413
3.840000E-8	0.003231
3.845000E-8	0.003041
3.850000E-8	0.002634
3.855000E-8	0.002384
3.860000E-8	0.001872
3.865000E-8	0.001519
3.870000E-8	0.001228
3.875000E-8	0.001022
3.880000E-8	0.000928
3.885000E-8	0.001109
3.890000E-8	0.001244
3.895000E-8	0.001519
3.900000E-8	0.001950
3.905000E-8	0.002291
3.910000E-8	0.002794
3.915000E-8	0.003113
3.920000E-8	0.003516
3.925000E-8	0.003628
3.930000E-8	0.003659
3.935000E-8	0.003569
3.940000E-8	0.003225
3.945000E-8	0.002944
3.950000E-8	0.002531
3.955000E-8	0.002119
3.960000E-8	0.001678
3.965000E-8	0.001322
3.970000E-8	0.001034
3.975000E-8	0.000828
3.980000E-8	0.000856
3.985000E-8	0.000934
3.990000E-8	0.001294
3.995000E-8	0.001641
4.000000E-8	0.002144
4.005000E-8	0.002650
4.010000E-8	0.003028
4.015000E-8	0.003397
4.020000E-8	0.003625
4.025000E-8	0.003675
4.030000E-8	0.003613
4.035000E-8	0.003328
4.040000E-8	0.003125
4.045000E-8	0.002728
4.050000E-8	0.002219
4.055000E-8	0.001750
4.060000E-8	0.001422
4.065000E-8	0.001072
4.070000E-8	0.000856
4.075000E-8	0.000809
4.080000E-8	0.000769
4.085000E-8	0.000894
4.090000E-8	0.001266
4.095000E-8	0.001631
4.100000E-8	0.002103
4.105000E-8	0.002434
4.110000E-8	0.002775
4.115000E-8	0.003087
4.120000E-8	0.003197
4.125000E-8	0.003266
4.130000E-8	0.003200
4.135000E-8	0.003034
4.140000E-8	0.002772
4.145000E-8	0.002259
4.150000E-8	0.001922
4.155000E-8	0.001638
4.160000E-8	0.001325
4.165000E-8	0.001053
4.170000E-8	0.000963
4.175000E-8	0.001091
4.180000E-8	0.001194
4.185000E-8	0.001519
4.190000E-8	0.001797
4.195000E-8	0.002181
4.200000E-8	0.002644
4.205000E-8	0.002913
4.210000E-8	0.003119
4.215000E-8	0.003384
4.220000E-8	0.003344
4.225000E-8	0.003216
4.230000E-8	0.003081
4.235000E-8	0.002775
4.240000E-8	0.002403
4.245000E-8	0.002050
4.250000E-8	0.001687
4.255000E-8	0.001447
4.260000E-8	0.001225
4.265000E-8	0.001069
4.270000E-8	0.000956
4.275000E-8	0.001069
4.280000E-8	0.001372
4.285000E-8	0.001675
4.290000E-8	0.001966
4.295000E-8	0.002275
4.300000E-8	0.002653
4.305000E-8	0.002931
4.310000E-8	0.003184
4.315000E-8	0.003162
4.320000E-8	0.003306
4.325000E-8	0.003338
4.330000E-8	0.003034
4.335000E-8	0.002856
4.340000E-8	0.002653
4.345000E-8	0.002388
4.350000E-8	0.002003
4.355000E-8	0.001791
4.360000E-8	0.001538
4.365000E-8	0.001359
4.370000E-8	0.001263
4.375000E-8	0.001422
4.380000E-8	0.001588
4.385000E-8	0.001956
4.390000E-8	0.002316
4.395000E-8	0.002603
4.400000E-8	0.002856
4.405000E-8	0.003181
4.410000E-8	0.003419
4.415000E-8	0.003578
4.420000E-8	0.003394
4.425000E-8	0.003275
4.430000E-8	0.002966
4.435000E-8	0.002684
4.440000E-8	0.002241
4.445000E-8	0.001869
4.450000E-8	0.001616
4.455000E-8	0.001437
4.460000E-8	0.001125
4.465000E-8	0.001172
4.470000E-8	0.001178
4.475000E-8	0.001331
4.480000E-8	0.001638
4.485000E-8	0.002006
4.490000E-8	0.002341
4.495000E-8	0.002594
4.500000E-8	0.002766
4.505000E-8	0.002913
4.510000E-8	0.003056
4.515000E-8	0.003091
4.520000E-8	0.003072
4.525000E-8	0.002906
4.530000E-8	0.002691
4.535000E-8	0.002450
4.540000E-8	0.001997
4.545000E-8	0.001809
4.550000E-8	0.001556
4.555000E-8	0.001247
4.560000E-8	0.001128
4.565000E-8	0.001094
4.570000E-8	0.001159
4.575000E-8	0.001356
4.580000E-8	0.001544
4.585000E-8	0.001856
4.590000E-8	0.002175
4.595000E-8	0.002547
4.600000E-8	0.002816
4.605000E-8	0.003184
4.610000E-8	0.003216
4.615000E-8	0.003291
4.620000E-8	0.003231
4.625000E-8	0.003059
4.630000E-8	0.002766
4.635000E-8	0.002475
4.640000E-8	0.002113
4.645000E-8	0.001828
4.650000E-8	0.001716
4.655000E-8	0.001600
4.660000E-8	0.001403
4.665000E-8	0.001350
4.670000E-8	0.001528
4.675000E-8	0.001753
4.680000E-8	0.002091
4.685000E-8	0.002278
4.690000E-8	0.002616
4.695000E-8	0.002763
4.700000E-8	0.002963
4.705000E-8	0.003141
4.710000E-8	0.003091
4.715000E-8	0.003178
4.720000E-8	0.002972
4.725000E-8	0.002766
4.730000E-8	0.002512
4.735000E-8	0.002259
4.740000E-8	0.001966
4.745000E-8	0.001750
4.750000E-8	0.001684
4.755000E-8	0.001575
4.760000E-8	0.001641
4.765000E-8	0.001713
4.770000E-8	0.001863
4.775000E-8	0.002153
4.780000E-8	0.002359
4.785000E-8	0.002578
4.790000E-8	0.002766
4.795000E-8	0.002931
4.800000E-8	0.003047
4.805000E-8	0.003119
4.810000E-8	0.003050
4.815000E-8	0.002972
4.820000E-8	0.002856
4.825000E-8	0.002669
4.830000E-8	0.002341
4.835000E-8	0.002094
4.840000E-8	0.001841
4.845000E-8	0.001763
4.850000E-8	0.001606
4.855000E-8	0.001691
4.860000E-8	0.001731
4.865000E-8	0.001781
4.870000E-8	0.002044
4.875000E-8	0.002241
4.880000E-8	0.002431
4.885000E-8	0.002672
4.890000E-8	0.002916
4.895000E-8	0.003075
4.900000E-8	0.003019
4.905000E-8	0.002841
4.910000E-8	0.002703
4.915000E-8	0.002488
4.920000E-8	0.002328
4.925000E-8	0.002087
4.930000E-8	0.001916
4.935000E-8	0.001706
4.940000E-8	0.001591
4.945000E-8	0.001612
4.950000E-8	0.001700
4.955000E-8	0.001788
4.960000E-8	0.001869
4.965000E-8	0.002081
4.970000E-8	0.002313
4.975000E-8	0.002516
4.980000E-8	0.002653
4.985000E-8	0.002913
4.990000E-8	0.003041
4.995000E-8	0.003084
5.000000E-8	0.003103
5.005000E-8	0.002900
5.010000E-8	0.002763
5.015000E-8	0.002531
5.020000E-8	0.002347
5.025000E-8	0.002131
5.030000E-8	0.002066
5.035000E-8	0.001900
5.040000E-8	0.001700
5.045000E-8	0.001572
5.050000E-8	0.001500
5.055000E-8	0.001609
5.060000E-8	0.001744
5.065000E-8	0.001900
5.070000E-8	0.002022
5.075000E-8	0.002206
5.080000E-8	0.002441
5.085000E-8	0.002550
5.090000E-8	0.002741
5.095000E-8	0.002897
5.100000E-8	0.002853
5.105000E-8	0.002850
5.110000E-8	0.002825
5.115000E-8	0.002600
5.120000E-8	0.002422
5.125000E-8	0.002297
5.130000E-8	0.002019
5.135000E-8	0.001947
5.140000E-8	0.001747
5.145000E-8	0.001597
5.150000E-8	0.001481
5.155000E-8	0.001497
5.160000E-8	0.001612
5.165000E-8	0.001806
5.170000E-8	0.001972
5.175000E-8	0.002266
5.180000E-8	0.002550
5.185000E-8	0.002869
5.190000E-8	0.003087
5.195000E-8	0.003131
5.200000E-8	0.003191
5.205000E-8	0.003300
5.210000E-8	0.003056
5.215000E-8	0.002856
5.220000E-8	0.002575
5.225000E-8	0.002350
5.230000E-8	0.002019
5.235000E-8	0.001747
5.240000E-8	0.001597
5.245000E-8	0.001450
5.250000E-8	0.001434
5.255000E-8	0.001572
5.260000E-8	0.001728
5.265000E-8	0.001969
5.270000E-8	0.002144
5.275000E-8	0.002334
5.280000E-8	0.002519
5.285000E-8	0.002678
5.290000E-8	0.002759
5.295000E-8	0.002731
5.300000E-8	0.002628
5.305000E-8	0.002472
5.310000E-8	0.002341
5.315000E-8	0.002141
5.320000E-8	0.001906
5.325000E-8	0.001753
5.330000E-8	0.001575
5.335000E-8	0.001469
5.340000E-8	0.001400
5.345000E-8	0.001316
5.350000E-8	0.001503
5.355000E-8	0.001691
5.360000E-8	0.001959
5.365000E-8	0.002056
5.370000E-8	0.002297
5.375000E-8	0.002475
5.380000E-8	0.002659
5.385000E-8	0.002750
5.390000E-8	0.002759
5.395000E-8	0.002803
5.400000E-8	0.002659
5.405000E-8	0.002609
5.410000E-8	0.002331
5.415000E-8	0.002178
5.420000E-8	0.001844
5.425000E-8	0.001678
5.430000E-8	0.001437
5.435000E-8	0.001531
5.440000E-8	0.001491
5.445000E-8	0.001491
5.450000E-8	0.001734
5.455000E-8	0.001978
5.460000E-8	0.002147
5.465000E-8	0.002419
5.470000E-8	0.002647
5.475000E-8	0.002791
5.480000E-8	0.002991
5.485000E-8	0.003038
5.490000E-8	0.003081
5.495000E-8	0.002988
5.500000E-8	0.002950
5.505000E-8	0.002772
5.510000E-8	0.002584
5.515000E-8	0.002306
5.520000E-8	0.002188
5.525000E-8	0.002022
5.530000E-8	0.001875
5.535000E-8	0.001753
5.540000E-8	0.001666
5.545000E-8	0.001706
5.550000E-8	0.001703
5.555000E-8	0.001909
5.560000E-8	0.001937
5.565000E-8	0.002228
5.570000E-8	0.002328
5.575000E-8	0.002447
5.580000E-8	0.002550
5.585000E-8	0.002622
5.590000E-8	0.002616
5.595000E-8	0.002622
5.600000E-8	0.002594
5.605000E-8	0.002341
5.610000E-8	0.002181
5.615000E-8	0.001916
5.620000E-8	0.001734
5.625000E-8	0.001663
5.630000E-8	0.001653
5.635000E-8	0.001672
5.640000E-8	0.001684
5.645000E-8	0.001850
5.650000E-8	0.002056
5.655000E-8	0.002284
5.660000E-8	0.002544
5.665000E-8	0.002684
5.670000E-8	0.002909
5.675000E-8	0.002991
5.680000E-8	0.002953
5.685000E-8	0.002872
5.690000E-8	0.002706
5.695000E-8	0.002556
5.700000E-8	0.002328
5.705000E-8	0.002103
5.710000E-8	0.001844
5.715000E-8	0.001653
5.720000E-8	0.001522
5.725000E-8	0.001378
5.730000E-8	0.001400
5.735000E-8	0.001466
5.740000E-8	0.001597
5.745000E-8	0.001759
5.750000E-8	0.001828
5.755000E-8	0.002106
5.760000E-8	0.002253
5.765000E-8	0.002512
5.770000E-8	0.002688
5.775000E-8	0.002753
5.780000E-8	0.002791
5.785000E-8	0.002784
5.790000E-8	0.002691
5.795000E-8	0.002538
5.800000E-8	0.002384
5.805000E-8	0.002194
5.810000E-8	0.002038
5.815000E-8	0.001947
5.820000E-8	0.001875
5.825000E-8	0.001775
5.830000E-8	0.001744
5.835000E-8	0.001803
5.840000E-8	0.001847
5.845000E-8	0.002016
5.850000E-8	0.002162
5.855000E-8	0.002347
5.860000E-8	0.002631
5.865000E-8	0.002653
5.870000E-8	0.002741
5.875000E-8	0.002788
5.880000E-8	0.002772
5.885000E-8	0.002638
5.890000E-8	0.002516
5.895000E-8	0.002331
5.900000E-8	0.002116
5.905000E-8	0.001953
5.910000E-8	0.001838
5.915000E-8	0.001750
5.920000E-8	0.001750
5.925000E-8	0.001741
5.930000E-8	0.001822
5.935000E-8	0.001903
5.940000E-8	0.001963
5.945000E-8	0.002228
5.950000E-8	0.002425
5.955000E-8	0.002587
5.960000E-8	0.002775
5.965000E-8	0.002856
5.970000E-8	0.002984
5.975000E-8	0.002859
5.980000E-8	0.002775
5.985000E-8	0.002669
5.990000E-8	0.002550
5.995000E-8	0.002363
6.000000E-8	0.002109
6.005000E-8	0.001947
6.010000E-8	0.001697
6.015000E-8	0.001609
6.020000E-8	0.001625
6.025000E-8	0.001647
6.030000E-8	0.001612
6.035000E-8	0.001825
6.040000E-8	0.002053
6.045000E-8	0.002097
6.050000E-8	0.002388
6.055000E-8	0.002622
6.060000E-8	0.002734
6.065000E-8	0.002859
6.070000E-8	0.002900
6.075000E-8	0.002831
6.080000E-8	0.002606
6.085000E-8	0.002534
6.090000E-8	0.002300
6.095000E-8	0.002050
6.100000E-8	0.001803
6.105000E-8	0.001838
6.110000E-8	0.001794
6.115000E-8	0.001681
6.120000E-8	0.001825
6.125000E-8	0.001963
6.130000E-8	0.002144
6.135000E-8	0.002372
6.140000E-8	0.002478
6.145000E-8	0.002706
6.150000E-8	0.002778
6.155000E-8	0.002809
6.160000E-8	0.002850
6.165000E-8	0.002834
6.170000E-8	0.002750
6.175000E-8	0.002616
6.180000E-8	0.002525
6.185000E-8	0.002409
6.190000E-8	0.002244
6.195000E-8	0.002063
6.200000E-8	0.001994
6.205000E-8	0.001878
6.210000E-8	0.001791
6.215000E-8	0.001687
6.220000E-8	0.001675
6.225000E-8	0.001816
6.230000E-8	0.001872
6.235000E-8	0.001966
6.240000E-8	0.002106
6.245000E-8	0.002259
6.250000E-8	0.002512
6.255000E-8	0.002575
6.260000E-8	0.002666
6.265000E-8	0.002822
6.270000E-8	0.002875
6.275000E-8	0.002781
6.280000E-8	0.002684
6.285000E-8	0.002584
6.290000E-8	0.002347
6.295000E-8	0.002272
6.300000E-8	0.002084
6.305000E-8	0.001991
6.310000E-8	0.001744
6.315000E-8	0.001759
6.320000E-8	0.001878
6.325000E-8	0.001825
6.330000E-8	0.001878
6.335000E-8	0.002091
6.340000E-8	0.002213
6.345000E-8	0.002437
6.350000E-8	0.002563
6.355000E-8	0.002697
6.360000E-8	0.002853
6.365000E-8	0.002850
6.370000E-8	0.002953
6.375000E-8	0.002828
6.380000E-8	0.002688
6.385000E-8	0.002625
6.390000E-8	0.002444
6.395000E-8	0.002303
6.400000E-8	0.002084
6.405000E-8	0.002103
6.410000E-8	0.001988
6.415000E-8	0.002031
6.420000E-8	0.001900
6.425000E-8	0.002009
6.430000E-8	0.002106
6.435000E-8	0.002225
6.440000E-8	0.002297
6.445000E-8	0.002319
6.450000E-8	0.002469
6.455000E-8	0.002466
6.460000E-8	0.002350
6.465000E-8	0.002384
6.470000E-8	0.002309
6.475000E-8	0.002259
6.480000E-8	0.002078
6.485000E-8	0.001984
6.490000E-8	0.001897
6.495000E-8	0.001844
6.500000E-8	0.001697
6.505000E-8	0.001669
6.510000E-8	0.001694
6.515000E-8	0.001750
6.520000E-8	0.001797
6.525000E-8	0.001897
6.530000E-8	0.001972
6.535000E-8	0.002038
6.540000E-8	0.002241
6.545000E-8	0.002400
6.550000E-8	0.002497
6.555000E-8	0.002584
6.560000E-8	0.002713
6.565000E-8	0.002741
6.570000E-8	0.002672
6.575000E-8	0.002662
6.580000E-8	0.002531
6.585000E-8	0.002488
6.590000E-8	0.002272
6.595000E-8	0.002087
6.600000E-8	0.001959
6.605000E-8	0.001963
6.610000E-8	0.001928
6.615000E-8	0.001988
6.620000E-8	0.001981
6.625000E-8	0.002175
6.630000E-8	0.002338
6.635000E-8	0.002556
6.640000E-8	0.002609
6.645000E-8	0.002678
6.650000E-8	0.002725
6.655000E-8	0.002772
6.660000E-8	0.002778
6.665000E-8	0.002703
6.670000E-8	0.002609
6.675000E-8	0.002512
6.680000E-8	0.002278
6.685000E-8	0.002072
6.690000E-8	0.001966
6.695000E-8	0.001984
6.700000E-8	0.001934
6.705000E-8	0.001953
6.710000E-8	0.001978
6.715000E-8	0.002034
6.720000E-8	0.002256
6.725000E-8	0.002363
6.730000E-8	0.002650
6.735000E-8	0.002759
6.740000E-8	0.002888
6.745000E-8	0.003038
6.750000E-8	0.002925
6.755000E-8	0.002847
6.760000E-8	0.002600
6.765000E-8	0.002422
6.770000E-8	0.002144
6.775000E-8	0.002044
6.780000E-8	0.002009
6.785000E-8	0.001928
6.790000E-8	0.001916
6.795000E-8	0.001956
6.800000E-8	0.001838
6.805000E-8	0.001919
6.810000E-8	0.001878
6.815000E-8	0.001969
6.820000E-8	0.002056
6.825000E-8	0.002084
6.830000E-8	0.002141
6.835000E-8	0.002294
6.840000E-8	0.002344
6.845000E-8	0.002503
6.850000E-8	0.002631
6.855000E-8	0.002594
6.860000E-8	0.002488
6.865000E-8	0.002463
6.870000E-8	0.002472
6.875000E-8	0.002300
6.880000E-8	0.002122
6.885000E-8	0.001941
6.890000E-8	0.001819
6.895000E-8	0.001691
6.900000E-8	0.001622
6.905000E-8	0.001666
6.910000E-8	0.001647
6.915000E-8	0.001734
6.920000E-8	0.001984
6.925000E-8	0.002162
6.930000E-8	0.002459
6.935000E-8	0.002497
6.940000E-8	0.002525
6.945000E-8	0.002650
6.950000E-8	0.002512
6.955000E-8	0.002491
6.960000E-8	0.002372
6.965000E-8	0.002316
6.970000E-8	0.002209
6.975000E-8	0.002100
6.980000E-8	0.001953
6.985000E-8	0.001891
6.990000E-8	0.001844
6.995000E-8	0.001863
7.000000E-8	0.001909
7.005000E-8	0.002016
7.010000E-8	0.002081
7.015000E-8	0.002188
7.020000E-8	0.002228
7.025000E-8	0.002331
7.030000E-8	0.002419
7.035000E-8	0.002475
7.040000E-8	0.002394
7.045000E-8	0.002534
7.050000E-8	0.002594
7.055000E-8	0.002469
7.060000E-8	0.002403
7.065000E-8	0.002328
7.070000E-8	0.002281
7.075000E-8	0.002184
7.080000E-8	0.002003
7.085000E-8	0.001947
7.090000E-8	0.001934
7.095000E-8	0.001909
7.100000E-8	0.001834
7.105000E-8	0.001928
7.110000E-8	0.001881
7.115000E-8	0.001975
7.120000E-8	0.002134
7.125000E-8	0.002325
7.130000E-8	0.002509
7.135000E-8	0.002556
7.140000E-8	0.002700
7.145000E-8	0.002822
7.150000E-8	0.002806
7.155000E-8	0.002853
7.160000E-8	0.002638
7.165000E-8	0.002650
7.170000E-8	0.002441
7.175000E-8	0.002250
7.180000E-8	0.002266
7.185000E-8	0.002166
7.190000E-8	0.002109
7.195000E-8	0.002050
7.200000E-8	0.002056
7.205000E-8	0.002072
7.210000E-8	0.002153
7.215000E-8	0.002309
7.220000E-8	0.002366
7.225000E-8	0.002441
7.230000E-8	0.002594
7.235000E-8	0.002662
7.240000E-8	0.002744
7.245000E-8	0.002809
7.250000E-8	0.002691
7.255000E-8	0.002625
7.260000E-8	0.002469
7.265000E-8	0.002266
7.270000E-8	0.002103
7.275000E-8	0.002153
7.280000E-8	0.002141
7.285000E-8	0.002150
7.290000E-8	0.002122
7.295000E-8	0.002203
7.300000E-8	0.002147
7.305000E-8	0.002278
7.310000E-8	0.002300
7.315000E-8	0.002372
7.320000E-8	0.002419
7.325000E-8	0.002313
7.330000E-8	0.002347
7.335000E-8	0.002234
7.340000E-8	0.002231
7.345000E-8	0.002209
7.350000E-8	0.002216
7.355000E-8	0.001959
7.360000E-8	0.002038
7.365000E-8	0.002156
7.370000E-8	0.002138
7.375000E-8	0.002084
7.380000E-8	0.001972
7.385000E-8	0.001997
7.390000E-8	0.002166
7.395000E-8	0.002331
7.400000E-8	0.002416
7.405000E-8	0.002369
7.410000E-8	0.002394
7.415000E-8	0.002519
7.420000E-8	0.002531
7.425000E-8	0.002522
7.430000E-8	0.002541
7.435000E-8	0.002544
7.440000E-8	0.002431
7.445000E-8	0.002406
7.450000E-8	0.002469
7.455000E-8	0.002447
7.460000E-8	0.002372
7.465000E-8	0.002391
7.470000E-8	0.002419
7.475000E-8	0.002447
7.480000E-8	0.002478
7.485000E-8	0.002469
7.490000E-8	0.002497
7.495000E-8	0.002547
7.500000E-8	0.002606
7.505000E-8	0.002656
7.510000E-8	0.002684
7.515000E-8	0.002725
7.520000E-8	0.002737
7.525000E-8	0.002688
7.530000E-8	0.002675
7.535000E-8	0.002838
7.540000E-8	0.002756
7.545000E-8	0.002662
7.550000E-8	0.002466
7.555000E-8	0.002472
7.560000E-8	0.002256
7.565000E-8	0.002181
7.570000E-8	0.002000
7.575000E-8	0.001941
7.580000E-8	0.001888
7.585000E-8	0.001931
7.590000E-8	0.001916
7.595000E-8	0.002106
7.600000E-8	0.002203
7.605000E-8	0.002338
7.610000E-8	0.002466
7.615000E-8	0.002644
7.620000E-8	0.002684
7.625000E-8	0.002725
7.630000E-8	0.002744
7.635000E-8	0.002656
7.640000E-8	0.002634
7.645000E-8	0.002509
7.650000E-8	0.002437
7.655000E-8	0.002338
7.660000E-8	0.002228
7.665000E-8	0.002181
7.670000E-8	0.002219
7.675000E-8	0.002225
7.680000E-8	0.002300
7.685000E-8	0.002266
7.690000E-8	0.002459
7.695000E-8	0.002384
7.700000E-8	0.002478
7.705000E-8	0.002603
7.710000E-8	0.002638
7.715000E-8	0.002706
7.720000E-8	0.002631
7.725000E-8	0.002559
7.730000E-8	0.002631
7.735000E-8	0.002669
7.740000E-8	0.002669
7.745000E-8	0.002509
7.750000E-8	0.002478
7.755000E-8	0.002503
7.760000E-8	0.002475
7.765000E-8	0.002428
7.770000E-8	0.002413
7.775000E-8	0.002409
7.780000E-8	0.002434
7.785000E-8	0.002347
7.790000E-8	0.002409
7.795000E-8	0.002269
7.800000E-8	0.002316
7.805000E-8	0.002306
7.810000E-8	0.002422
7.815000E-8	0.002463
7.820000E-8	0.002450
7.825000E-8	0.002472
7.830000E-8	0.002450
7.835000E-8	0.002378
7.840000E-8	0.002453
7.845000E-8	0.002503
7.850000E-8	0.002369
7.855000E-8	0.002444
7.860000E-8	0.002294
7.865000E-8	0.002259
7.870000E-8	0.002162
7.875000E-8	0.002272
7.880000E-8	0.002272
7.885000E-8	0.002225
7.890000E-8	0.002169
7.895000E-8	0.002309
7.900000E-8	0.002284
7.905000E-8	0.002453
7.910000E-8	0.002547
7.915000E-8	0.002550
7.920000E-8	0.002706
7.925000E-8	0.002791
7.930000E-8	0.002822
7.935000E-8	0.002856
7.940000E-8	0.002666
7.945000E-8	0.002638
7.950000E-8	0.002444
7.955000E-8	0.002353
7.960000E-8	0.002225
7.965000E-8	0.002200
7.970000E-8	0.002128
7.975000E-8	0.002175
7.980000E-8	0.002081
7.985000E-8	0.002138
7.990000E-8	0.002209
7.995000E-8	0.002216
8.000000E-8	0.002188
8.005000E-8	0.002353
8.010000E-8	0.002444
8.015000E-8	0.002463
8.020000E-8	0.002534
8.025000E-8	0.002519
8.030000E-8	0.002525
8.035000E-8	0.002509
8.040000E-8	0.002472
8.045000E-8	0.002413
8.050000E-8	0.002306
8.055000E-8	0.002241
8.060000E-8	0.002194
8.065000E-8	0.002116
8.070000E-8	0.002097
8.075000E-8	0.002094
8.080000E-8	0.002025
8.085000E-8	0.002050
8.090000E-8	0.002228
8.095000E-8	0.002353
8.100000E-8	0.002291
8.105000E-8	0.002309
8.110000E-8	0.002394
8.115000E-8	0.002463
8.120000E-8	0.002437
8.125000E-8	0.002437
8.130000E-8	0.002409
8.135000E-8	0.002319
8.140000E-8	0.002263
8.145000E-8	0.002353
8.150000E-8	0.002378
8.155000E-8	0.002363
8.160000E-8	0.002272
8.165000E-8	0.002431
8.170000E-8	0.002281
8.175000E-8	0.002350
8.180000E-8	0.002275
8.185000E-8	0.002237
8.190000E-8	0.002313
8.195000E-8	0.002237
8.200000E-8	0.002100
8.205000E-8	0.002297
8.210000E-8	0.002272
8.215000E-8	0.002353
8.220000E-8	0.002316
8.225000E-8	0.002441
8.230000E-8	0.002431
8.235000E-8	0.002309
8.240000E-8	0.002309
8.245000E-8	0.002259
8.250000E-8	0.002122
8.255000E-8	0.002097
8.260000E-8	0.001950
8.265000E-8	0.001853
8.270000E-8	0.001825
8.275000E-8	0.001875
8.280000E-8	0.001831
8.285000E-8	0.001916
8.290000E-8	0.001813
8.295000E-8	0.001997
8.300000E-8	0.002103
8.305000E-8	0.002250
8.310000E-8	0.002297
8.315000E-8	0.002291
8.320000E-8	0.002338
8.325000E-8	0.002409
8.330000E-8	0.002469
8.335000E-8	0.002416
8.340000E-8	0.002422
8.345000E-8	0.002356
8.350000E-8	0.002150
8.355000E-8	0.002169
8.360000E-8	0.002138
8.365000E-8	0.002153
8.370000E-8	0.002169
8.375000E-8	0.002181
8.380000E-8	0.002241
8.385000E-8	0.002256
8.390000E-8	0.002237
8.395000E-8	0.002375
8.400000E-8	0.002388
8.405000E-8	0.002322
8.410000E-8	0.002366
8.415000E-8	0.002397
8.420000E-8	0.002366
8.425000E-8	0.002422
8.430000E-8	0.002544
8.435000E-8	0.002516
8.440000E-8	0.002450
8.445000E-8	0.002369
8.450000E-8	0.002441
8.455000E-8	0.002384
8.460000E-8	0.002259
8.465000E-8	0.002247
8.470000E-8	0.002100
8.475000E-8	0.001959
8.480000E-8	0.002034
8.485000E-8	0.002041
8.490000E-8	0.002009
8.495000E-8	0.002009
8.500000E-8	0.001963
8.505000E-8	0.002084
8.510000E-8	0.002222
8.515000E-8	0.002119
8.520000E-8	0.002097
8.525000E-8	0.002162
8.530000E-8	0.002156
8.535000E-8	0.002116
8.540000E-8	0.002034
8.545000E-8	0.002091
8.550000E-8	0.002034
8.555000E-8	0.002012
8.560000E-8	0.002038
8.565000E-8	0.001988
8.570000E-8	0.002122
8.575000E-8	0.002250
8.580000E-8	0.002300
8.585000E-8	0.002447
8.590000E-8	0.002359
8.595000E-8	0.002372
8.600000E-8	0.002369
8.605000E-8	0.002509
8.610000E-8	0.002328
8.615000E-8	0.002219
8.620000E-8	0.002234
8.625000E-8	0.002119
8.630000E-8	0.002113
8.635000E-8	0.001959
8.640000E-8	0.001966
8.645000E-8	0.001978
8.650000E-8	0.001972
8.655000E-8	0.001972
8.660000E-8	0.002047
8.665000E-8	0.002138
8.670000E-8	0.002131
8.675000E-8	0.002322
8.680000E-8	0.002466
8.685000E-8	0.002553
8.690000E-8	0.002606
8.695000E-8	0.002734
8.700000E-8	0.002713
8.705000E-8	0.002694
8.710000E-8	0.002737
8.715000E-8	0.002594
8.720000E-8	0.002384
8.725000E-8	0.002206
8.730000E-8	0.002138
8.735000E-8	0.002044
8.740000E-8	0.001947
8.745000E-8	0.001819
8.750000E-8	0.001797
8.755000E-8	0.001888
8.760000E-8	0.001822
8.765000E-8	0.002003
8.770000E-8	0.002172
8.775000E-8	0.002209
8.780000E-8	0.002297
8.785000E-8	0.002512
8.790000E-8	0.002491
8.795000E-8	0.002512
8.800000E-8	0.002534
8.805000E-8	0.002494
8.810000E-8	0.002388
8.815000E-8	0.002434
8.820000E-8	0.002391
8.825000E-8	0.002306
8.830000E-8	0.002272
8.835000E-8	0.002259
8.840000E-8	0.002150
8.845000E-8	0.002100
8.850000E-8	0.002188
8.855000E-8	0.002028
8.860000E-8	0.002213
8.865000E-8	0.002341
8.870000E-8	0.002416
8.875000E-8	0.002478
8.880000E-8	0.002509
8.885000E-8	0.002484
8.890000E-8	0.002391
8.895000E-8	0.002369
8.900000E-8	0.002413
8.905000E-8	0.002341
8.910000E-8	0.002247
8.915000E-8	0.002194
8.920000E-8	0.002119
8.925000E-8	0.002050
8.930000E-8	0.002122
8.935000E-8	0.002116
8.940000E-8	0.002119
8.945000E-8	0.002056
8.950000E-8	0.002056
8.955000E-8	0.002106
8.960000E-8	0.002003
8.965000E-8	0.002159
8.970000E-8	0.002191
8.975000E-8	0.002272
8.980000E-8	0.002247
8.985000E-8	0.002278
8.990000E-8	0.002366
8.995000E-8	0.002306
9.000000E-8	0.002194
9.005000E-8	0.002241
9.010000E-8	0.002253
9.015000E-8	0.002253
9.020000E-8	0.002247
9.025000E-8	0.002256
9.030000E-8	0.002253
9.035000E-8	0.002278
9.040000E-8	0.002228
9.045000E-8	0.002284
9.050000E-8	0.002303
9.055000E-8	0.002334
9.060000E-8	0.002437
9.065000E-8	0.002237
9.070000E-8	0.002306
9.075000E-8	0.002231
9.080000E-8	0.002322
9.085000E-8	0.002331
9.090000E-8	0.002266
9.095000E-8	0.002322
9.100000E-8	0.002291
9.105000E-8	0.002344
9.110000E-8	0.002294
9.115000E-8	0.002403
9.120000E-8	0.002319
9.125000E-8	0.002316
9.130000E-8	0.002247
9.135000E-8	0.002319
9.140000E-8	0.002319
9.145000E-8	0.002303
9.150000E-8	0.002291
9.155000E-8	0.002250
9.160000E-8	0.002184
9.165000E-8	0.002297
9.170000E-8	0.002319
9.175000E-8	0.002259
9.180000E-8	0.002325
9.185000E-8	0.002344
9.190000E-8	0.002425
9.195000E-8	0.002484
9.200000E-8	0.002466
9.205000E-8	0.002500
9.210000E-8	0.002491
9.215000E-8	0.002528
9.220000E-8	0.002572
9.225000E-8	0.002563
9.230000E-8	0.002541
9.235000E-8	0.002550
9.240000E-8	0.002563
9.245000E-8	0.002525
9.250000E-8	0.002603
9.255000E-8	0.002497
9.260000E-8	0.002575
9.265000E-8	0.002525
9.270000E-8	0.002463
9.275000E-8	0.002419
9.280000E-8	0.002406
9.285000E-8	0.002322
9.290000E-8	0.002272
9.295000E-8	0.002209
9.300000E-8	0.002172
9.305000E-8	0.002284
9.310000E-8	0.002334
9.315000E-8	0.002303
9.320000E-8	0.002334
9.325000E-8	0.002488
9.330000E-8	0.002534
9.335000E-8	0.002584
9.340000E-8	0.002569
9.345000E-8	0.002641
9.350000E-8	0.002575
9.355000E-8	0.002556
9.360000E-8	0.002525
9.365000E-8	0.002488
9.370000E-8	0.002428
9.375000E-8	0.002544
9.380000E-8	0.002606
9.385000E-8	0.002541
9.390000E-8	0.002581
9.395000E-8	0.002437
9.400000E-8	0.002456
9.405000E-8	0.002384
9.410000E-8	0.002316
9.415000E-8	0.002231
9.420000E-8	0.002116
9.425000E-8	0.001984
9.430000E-8	0.001959
9.435000E-8	0.002028
9.440000E-8	0.001922
9.445000E-8	0.001903
9.450000E-8	0.002056
9.455000E-8	0.002237
9.460000E-8	0.002203
9.465000E-8	0.002372
9.470000E-8	0.002538
9.475000E-8	0.002613
9.480000E-8	0.002734
9.485000E-8	0.002747
9.490000E-8	0.002666
9.495000E-8	0.002616
9.500000E-8	0.002475
9.505000E-8	0.002388
9.510000E-8	0.002263
9.515000E-8	0.002334
9.520000E-8	0.002316
9.525000E-8	0.002309
9.530000E-8	0.002266
9.535000E-8	0.002428
9.540000E-8	0.002381
9.545000E-8	0.002534
9.550000E-8	0.002550
9.555000E-8	0.002631
9.560000E-8	0.002522
9.565000E-8	0.002547
9.570000E-8	0.002569
9.575000E-8	0.002369
9.580000E-8	0.002422
9.585000E-8	0.002353
9.590000E-8	0.002331
9.595000E-8	0.002300
9.600000E-8	0.002309
9.605000E-8	0.002334
9.610000E-8	0.002244
9.615000E-8	0.002281
9.620000E-8	0.002247
9.625000E-8	0.002237
9.630000E-8	0.002188
9.635000E-8	0.002131
9.640000E-8	0.002203
9.645000E-8	0.002188
9.650000E-8	0.002066
9.655000E-8	0.002181
9.660000E-8	0.002128
9.665000E-8	0.002209
9.670000E-8	0.002216
9.675000E-8	0.002228
9.680000E-8	0.002188
9.685000E-8	0.002272
9.690000E-8	0.002284
9.695000E-8	0.002266
9.700000E-8	0.002216
9.705000E-8	0.002191
9.710000E-8	0.002153
9.715000E-8	0.002191
9.720000E-8	0.002038
9.725000E-8	0.002075
9.730000E-8	0.002044
9.735000E-8	0.002119
9.740000E-8	0.001975
9.745000E-8	0.002106
9.750000E-8	0.002119
9.755000E-8	0.002122
9.760000E-8	0.002113
9.765000E-8	0.002225
9.770000E-8	0.002113
9.775000E-8	0.002078
9.780000E-8	0.002122
9.785000E-8	0.002178
9.790000E-8	0.002184
9.795000E-8	0.002150
9.800000E-8	0.002166
9.805000E-8	0.002141
9.810000E-8	0.002066
9.815000E-8	0.002094
9.820000E-8	0.002144
9.825000E-8	0.002181
9.830000E-8	0.002206
9.835000E-8	0.002197
9.840000E-8	0.002191
9.845000E-8	0.002344
9.850000E-8	0.002388
9.855000E-8	0.002447
9.860000E-8	0.002500
9.865000E-8	0.002597
9.870000E-8	0.002575
9.875000E-8	0.002475
9.880000E-8	0.002444
9.885000E-8	0.002447
9.890000E-8	0.002384
9.895000E-8	0.002369
9.900000E-8	0.002259
9.905000E-8	0.002184
9.910000E-8	0.002059
9.915000E-8	0.002066
9.920000E-8	0.002059
9.925000E-8	0.002162
9.930000E-8	0.002097
9.935000E-8	0.002156
9.940000E-8	0.002266
9.945000E-8	0.002306
9.950000E-8	0.002344
9.955000E-8	0.002322
9.960000E-8	0.002378
9.965000E-8	0.002406
9.970000E-8	0.002347
9.975000E-8	0.002531
9.980000E-8	0.002350
9.985000E-8	0.002475
9.990000E-8	0.002406
9.995000E-8	0.002369
