LabVIEW Measurement	
Writer_Version	2
Reader_Version	2
Separator	Tab
Decimal_Separator	.
Multi_Headings	No
X_Columns	Multi
Time_Pref	Relative
Operator	TG lab
Date	2015/03/06
Time	18:15:15.9131479263305664063
***End_of_Header***	
	
Channels	1	
Samples	2000	
Date	2015/03/06	
Time	18:15:15.9131479263305664063	
X_Dimension	Time	
X0	0.0000000000000000E+0	
Delta_X	5.000000E-11	
***End_of_Header***		
X_Value	Untitled	Comment
0.000000	0.001947
5.000000E-11	0.001909
1.000000E-10	0.001869
1.500000E-10	0.001950
2.000000E-10	0.001903
2.500000E-10	0.001903
3.000000E-10	0.001944
3.500000E-10	0.001888
4.000000E-10	0.001794
4.500000E-10	0.001806
5.000000E-10	0.001913
5.500000E-10	0.001984
6.000000E-10	0.001984
6.500000E-10	0.002034
7.000000E-10	0.002034
7.500000E-10	0.002069
8.000000E-10	0.002106
8.500000E-10	0.002066
9.000000E-10	0.001997
9.500000E-10	0.001947
1.000000E-9	0.001825
1.050000E-9	0.001913
1.100000E-9	0.001813
1.150000E-9	0.001813
1.200000E-9	0.001775
1.250000E-9	0.001794
1.300000E-9	0.001791
1.350000E-9	0.001728
1.400000E-9	0.001794
1.450000E-9	0.001841
1.500000E-9	0.001763
1.550000E-9	0.001700
1.600000E-9	0.001628
1.650000E-9	0.001616
1.700000E-9	0.001556
1.750000E-9	0.001625
1.800000E-9	0.001575
1.850000E-9	0.001609
1.900000E-9	0.001619
1.950000E-9	0.001766
2.000000E-9	0.001697
2.050000E-9	0.001706
2.100000E-9	0.001744
2.150000E-9	0.001709
2.200000E-9	0.001631
2.250000E-9	0.001594
2.300000E-9	0.001541
2.350000E-9	0.001547
2.400000E-9	0.001425
2.450000E-9	0.001488
2.500000E-9	0.001491
2.550000E-9	0.001500
2.600000E-9	0.001538
2.650000E-9	0.001612
2.700000E-9	0.001700
2.750000E-9	0.001788
2.800000E-9	0.001738
2.850000E-9	0.001813
2.900000E-9	0.001831
2.950000E-9	0.001769
3.000000E-9	0.001706
3.050000E-9	0.001544
3.100000E-9	0.001509
3.150000E-9	0.001381
3.200000E-9	0.001303
3.250000E-9	0.001216
3.300000E-9	0.001166
3.350000E-9	0.001238
3.400000E-9	0.001197
3.450000E-9	0.001203
3.500000E-9	0.001103
3.550000E-9	0.001097
3.600000E-9	0.001038
3.650000E-9	0.001028
3.700000E-9	0.001009
3.750000E-9	0.001059
3.800000E-9	0.001028
3.850000E-9	0.001009
3.900000E-9	0.001016
3.950000E-9	0.001041
4.000000E-9	0.001044
4.050000E-9	0.001172
4.100000E-9	0.001247
4.150000E-9	0.001303
4.200000E-9	0.001313
4.250000E-9	0.001325
4.300000E-9	0.001437
4.350000E-9	0.001506
4.400000E-9	0.001447
4.450000E-9	0.001469
4.500000E-9	0.001469
4.550000E-9	0.001606
4.600000E-9	0.001397
4.650000E-9	0.001291
4.700000E-9	0.000844
4.750000E-9	0.000275
4.800000E-9	-0.000856
4.850000E-9	-0.002234
4.900000E-9	-0.004316
4.950000E-9	-0.006778
5.000000E-9	-0.009734
5.050000E-9	-0.013109
5.100000E-9	-0.016891
5.150000E-9	-0.020828
5.200000E-9	-0.024619
5.250000E-9	-0.028238
5.300000E-9	-0.031659
5.350000E-9	-0.034516
5.400000E-9	-0.037166
5.450000E-9	-0.039250
5.500000E-9	-0.040844
5.550000E-9	-0.041869
5.600000E-9	-0.042669
5.650000E-9	-0.042784
5.700000E-9	-0.042591
5.750000E-9	-0.041775
5.800000E-9	-0.040659
5.850000E-9	-0.039025
5.900000E-9	-0.037088
5.950000E-9	-0.034925
6.000000E-9	-0.032544
6.050000E-9	-0.030025
6.100000E-9	-0.027875
6.150000E-9	-0.025825
6.200000E-9	-0.024328
6.250000E-9	-0.023088
6.300000E-9	-0.022347
6.350000E-9	-0.021931
6.400000E-9	-0.022194
6.450000E-9	-0.022694
6.500000E-9	-0.023375
6.550000E-9	-0.024213
6.600000E-9	-0.025156
6.650000E-9	-0.025838
6.700000E-9	-0.026591
6.750000E-9	-0.027172
6.800000E-9	-0.027922
6.850000E-9	-0.028197
6.900000E-9	-0.028272
6.950000E-9	-0.028147
7.000000E-9	-0.027859
7.050000E-9	-0.027275
7.100000E-9	-0.026313
7.150000E-9	-0.025034
7.200000E-9	-0.023544
7.250000E-9	-0.021866
7.300000E-9	-0.020181
7.350000E-9	-0.018403
7.400000E-9	-0.016725
7.450000E-9	-0.015222
7.500000E-9	-0.014041
7.550000E-9	-0.012997
7.600000E-9	-0.012403
7.650000E-9	-0.012112
7.700000E-9	-0.012050
7.750000E-9	-0.012238
7.800000E-9	-0.012800
7.850000E-9	-0.013534
7.900000E-9	-0.014334
7.950000E-9	-0.015222
8.000000E-9	-0.016109
8.050000E-9	-0.016847
8.100000E-9	-0.017509
8.150000E-9	-0.018084
8.200000E-9	-0.018591
8.250000E-9	-0.018634
8.300000E-9	-0.018391
8.350000E-9	-0.017944
8.400000E-9	-0.017284
8.450000E-9	-0.016297
8.500000E-9	-0.015116
8.550000E-9	-0.013828
8.600000E-9	-0.012541
8.650000E-9	-0.011300
8.700000E-9	-0.010066
8.750000E-9	-0.008844
8.800000E-9	-0.007906
8.850000E-9	-0.007100
8.900000E-9	-0.006528
8.950000E-9	-0.006031
9.000000E-9	-0.005900
9.050000E-9	-0.006019
9.100000E-9	-0.006416
9.150000E-9	-0.006884
9.200000E-9	-0.007609
9.250000E-9	-0.008459
9.300000E-9	-0.009488
9.350000E-9	-0.010369
9.400000E-9	-0.011297
9.450000E-9	-0.012163
9.500000E-9	-0.012563
9.550000E-9	-0.012922
9.600000E-9	-0.013081
9.650000E-9	-0.012991
9.700000E-9	-0.012672
9.750000E-9	-0.011963
9.800000E-9	-0.011122
9.850000E-9	-0.010169
9.900000E-9	-0.009091
9.950000E-9	-0.007950
1.000000E-8	-0.006844
1.005000E-8	-0.005716
1.010000E-8	-0.004638
1.015000E-8	-0.003769
1.020000E-8	-0.003047
1.025000E-8	-0.002522
1.030000E-8	-0.002219
1.035000E-8	-0.002331
1.040000E-8	-0.002519
1.045000E-8	-0.002956
1.050000E-8	-0.003763
1.055000E-8	-0.004447
1.060000E-8	-0.005278
1.065000E-8	-0.006122
1.070000E-8	-0.006956
1.075000E-8	-0.007628
1.080000E-8	-0.008331
1.085000E-8	-0.008744
1.090000E-8	-0.008956
1.095000E-8	-0.008887
1.100000E-8	-0.008841
1.105000E-8	-0.008366
1.110000E-8	-0.008016
1.115000E-8	-0.007259
1.120000E-8	-0.006344
1.125000E-8	-0.005313
1.130000E-8	-0.004403
1.135000E-8	-0.003309
1.140000E-8	-0.002313
1.145000E-8	-0.001353
1.150000E-8	-0.000731
1.155000E-8	-0.000191
1.160000E-8	0.000144
1.165000E-8	0.000319
1.170000E-8	0.000106
1.175000E-8	-0.000150
1.180000E-8	-0.000744
1.185000E-8	-0.001625
1.190000E-8	-0.002525
1.195000E-8	-0.003388
1.200000E-8	-0.004328
1.205000E-8	-0.005319
1.210000E-8	-0.006063
1.215000E-8	-0.006778
1.220000E-8	-0.007263
1.225000E-8	-0.007416
1.230000E-8	-0.007478
1.235000E-8	-0.007181
1.240000E-8	-0.006744
1.245000E-8	-0.006069
1.250000E-8	-0.005275
1.255000E-8	-0.004247
1.260000E-8	-0.003228
1.265000E-8	-0.002028
1.270000E-8	-0.000969
1.275000E-8	2.187500E-5
1.280000E-8	0.000919
1.285000E-8	0.001556
1.290000E-8	0.002000
1.295000E-8	0.002162
1.300000E-8	0.002106
1.305000E-8	0.001675
1.310000E-8	0.001125
1.315000E-8	0.000328
1.320000E-8	-0.000516
1.325000E-8	-0.001453
1.330000E-8	-0.002406
1.335000E-8	-0.003313
1.340000E-8	-0.004163
1.345000E-8	-0.004869
1.350000E-8	-0.005363
1.355000E-8	-0.005641
1.360000E-8	-0.005741
1.365000E-8	-0.005638
1.370000E-8	-0.005178
1.375000E-8	-0.004600
1.380000E-8	-0.003859
1.385000E-8	-0.002766
1.390000E-8	-0.001869
1.395000E-8	-0.000822
1.400000E-8	0.000119
1.405000E-8	0.001150
1.410000E-8	0.001947
1.415000E-8	0.002847
1.420000E-8	0.003300
1.425000E-8	0.003647
1.430000E-8	0.003606
1.435000E-8	0.003394
1.440000E-8	0.002947
1.445000E-8	0.002328
1.450000E-8	0.001450
1.455000E-8	0.000472
1.460000E-8	-0.000591
1.465000E-8	-0.001466
1.470000E-8	-0.002478
1.475000E-8	-0.003291
1.480000E-8	-0.004053
1.485000E-8	-0.004553
1.490000E-8	-0.004850
1.495000E-8	-0.004934
1.500000E-8	-0.004684
1.505000E-8	-0.004163
1.510000E-8	-0.003603
1.515000E-8	-0.002556
1.520000E-8	-0.001572
1.525000E-8	-0.000503
1.530000E-8	0.000534
1.535000E-8	0.001756
1.540000E-8	0.002672
1.545000E-8	0.003431
1.550000E-8	0.004056
1.555000E-8	0.004381
1.560000E-8	0.004459
1.565000E-8	0.004291
1.570000E-8	0.003788
1.575000E-8	0.003172
1.580000E-8	0.002147
1.585000E-8	0.001184
1.590000E-8	8.750000E-5
1.595000E-8	-0.001003
1.600000E-8	-0.001994
1.605000E-8	-0.002844
1.610000E-8	-0.003625
1.615000E-8	-0.003956
1.620000E-8	-0.004234
1.625000E-8	-0.004222
1.630000E-8	-0.003906
1.635000E-8	-0.003288
1.640000E-8	-0.002453
1.645000E-8	-0.001516
1.650000E-8	-0.000478
1.655000E-8	0.000706
1.660000E-8	0.001803
1.665000E-8	0.002888
1.670000E-8	0.003881
1.675000E-8	0.004528
1.680000E-8	0.005053
1.685000E-8	0.005228
1.690000E-8	0.005253
1.695000E-8	0.005084
1.700000E-8	0.004503
1.705000E-8	0.003763
1.710000E-8	0.002919
1.715000E-8	0.001984
1.720000E-8	0.000850
1.725000E-8	-0.000147
1.730000E-8	-0.001253
1.735000E-8	-0.002250
1.740000E-8	-0.002900
1.745000E-8	-0.003509
1.750000E-8	-0.003841
1.755000E-8	-0.003659
1.760000E-8	-0.003384
1.765000E-8	-0.002875
1.770000E-8	-0.002022
1.775000E-8	-0.001112
1.780000E-8	-0.000225
1.785000E-8	0.000894
1.790000E-8	0.001944
1.795000E-8	0.003069
1.800000E-8	0.003772
1.805000E-8	0.004413
1.810000E-8	0.004763
1.815000E-8	0.005016
1.820000E-8	0.005116
1.825000E-8	0.004778
1.830000E-8	0.004284
1.835000E-8	0.003731
1.840000E-8	0.003012
1.845000E-8	0.002206
1.850000E-8	0.001178
1.855000E-8	0.000272
1.860000E-8	-0.000628
1.865000E-8	-0.001234
1.870000E-8	-0.002003
1.875000E-8	-0.002450
1.880000E-8	-0.002806
1.885000E-8	-0.002806
1.890000E-8	-0.002697
1.895000E-8	-0.002316
1.900000E-8	-0.001763
1.905000E-8	-0.000991
1.910000E-8	-0.000181
1.915000E-8	0.000875
1.920000E-8	0.001803
1.925000E-8	0.002934
1.930000E-8	0.003813
1.935000E-8	0.004763
1.940000E-8	0.005244
1.945000E-8	0.005619
1.950000E-8	0.005609
1.955000E-8	0.005456
1.960000E-8	0.004997
1.965000E-8	0.004400
1.970000E-8	0.003547
1.975000E-8	0.002691
1.980000E-8	0.001763
1.985000E-8	0.000909
1.990000E-8	7.812500E-5
1.995000E-8	-0.000544
2.000000E-8	-0.001191
2.005000E-8	-0.001628
2.010000E-8	-0.001859
2.015000E-8	-0.001838
2.020000E-8	-0.001734
2.025000E-8	-0.001425
2.030000E-8	-0.001006
2.035000E-8	-0.000400
2.040000E-8	0.000313
2.045000E-8	0.001031
2.050000E-8	0.001763
2.055000E-8	0.002550
2.060000E-8	0.003384
2.065000E-8	0.003969
2.070000E-8	0.004313
2.075000E-8	0.004638
2.080000E-8	0.004928
2.085000E-8	0.004991
2.090000E-8	0.004772
2.095000E-8	0.004506
2.100000E-8	0.003844
2.105000E-8	0.003150
2.110000E-8	0.002450
2.115000E-8	0.001588
2.120000E-8	0.000631
2.125000E-8	-0.000178
2.130000E-8	-0.000894
2.135000E-8	-0.001441
2.140000E-8	-0.001834
2.145000E-8	-0.001891
2.150000E-8	-0.002072
2.155000E-8	-0.001825
2.160000E-8	-0.001394
2.165000E-8	-0.000872
2.170000E-8	-0.000241
2.175000E-8	0.000681
2.180000E-8	0.001538
2.185000E-8	0.002359
2.190000E-8	0.003047
2.195000E-8	0.003850
2.200000E-8	0.004406
2.205000E-8	0.004966
2.210000E-8	0.005213
2.215000E-8	0.005328
2.220000E-8	0.005178
2.225000E-8	0.004984
2.230000E-8	0.004525
2.235000E-8	0.003894
2.240000E-8	0.003122
2.245000E-8	0.002378
2.250000E-8	0.001375
2.255000E-8	0.000541
2.260000E-8	-0.000297
2.265000E-8	-0.000894
2.270000E-8	-0.001466
2.275000E-8	-0.001831
2.280000E-8	-0.001925
2.285000E-8	-0.001753
2.290000E-8	-0.001575
2.295000E-8	-0.000975
2.300000E-8	-0.000181
2.305000E-8	0.000544
2.310000E-8	0.001506
2.315000E-8	0.002353
2.320000E-8	0.003188
2.325000E-8	0.003919
2.330000E-8	0.004528
2.335000E-8	0.005084
2.340000E-8	0.005369
2.345000E-8	0.005403
2.350000E-8	0.005375
2.355000E-8	0.005081
2.360000E-8	0.004597
2.365000E-8	0.003981
2.370000E-8	0.003256
2.375000E-8	0.002534
2.380000E-8	0.001622
2.385000E-8	0.000788
2.390000E-8	-0.000147
2.395000E-8	-0.000822
2.400000E-8	-0.001422
2.405000E-8	-0.001766
2.410000E-8	-0.002022
2.415000E-8	-0.001847
2.420000E-8	-0.001741
2.425000E-8	-0.001200
2.430000E-8	-0.000594
2.435000E-8	0.000247
2.440000E-8	0.001078
2.445000E-8	0.001969
2.450000E-8	0.002841
2.455000E-8	0.003866
2.460000E-8	0.004422
2.465000E-8	0.005078
2.470000E-8	0.005394
2.475000E-8	0.005559
2.480000E-8	0.005438
2.485000E-8	0.005316
2.490000E-8	0.004866
2.495000E-8	0.004241
2.500000E-8	0.003497
2.505000E-8	0.002709
2.510000E-8	0.001934
2.515000E-8	0.001094
2.520000E-8	0.000344
2.525000E-8	-0.000331
2.530000E-8	-0.000809
2.535000E-8	-0.001084
2.540000E-8	-0.001372
2.545000E-8	-0.001419
2.550000E-8	-0.001141
2.555000E-8	-0.000737
2.560000E-8	-0.000237
2.565000E-8	0.000475
2.570000E-8	0.001322
2.575000E-8	0.002241
2.580000E-8	0.002997
2.585000E-8	0.003809
2.590000E-8	0.004384
2.595000E-8	0.005047
2.600000E-8	0.005491
2.605000E-8	0.005722
2.610000E-8	0.005678
2.615000E-8	0.005447
2.620000E-8	0.004928
2.625000E-8	0.004366
2.630000E-8	0.003641
2.635000E-8	0.002872
2.640000E-8	0.001950
2.645000E-8	0.001069
2.650000E-8	7.812500E-5
2.655000E-8	-0.000775
2.660000E-8	-0.001338
2.665000E-8	-0.001713
2.670000E-8	-0.001903
2.675000E-8	-0.001884
2.680000E-8	-0.001459
2.685000E-8	-0.000938
2.690000E-8	-0.000306
2.695000E-8	0.000603
2.700000E-8	0.001425
2.705000E-8	0.002359
2.710000E-8	0.003241
2.715000E-8	0.003997
2.720000E-8	0.004613
2.725000E-8	0.005234
2.730000E-8	0.005506
2.735000E-8	0.005569
2.740000E-8	0.005450
2.745000E-8	0.005138
2.750000E-8	0.004609
2.755000E-8	0.004216
2.760000E-8	0.003503
2.765000E-8	0.002928
2.770000E-8	0.002150
2.775000E-8	0.001425
2.780000E-8	0.000747
2.785000E-8	0.000194
2.790000E-8	-0.000209
2.795000E-8	-0.000519
2.800000E-8	-0.000725
2.805000E-8	-0.000881
2.810000E-8	-0.000747
2.815000E-8	-0.000300
2.820000E-8	0.000116
2.825000E-8	0.000694
2.830000E-8	0.001378
2.835000E-8	0.002175
2.840000E-8	0.002875
2.845000E-8	0.003713
2.850000E-8	0.004284
2.855000E-8	0.004822
2.860000E-8	0.005094
2.865000E-8	0.005372
2.870000E-8	0.005256
2.875000E-8	0.005169
2.880000E-8	0.004803
2.885000E-8	0.004244
2.890000E-8	0.003603
2.895000E-8	0.002956
2.900000E-8	0.002278
2.905000E-8	0.001659
2.910000E-8	0.001009
2.915000E-8	0.000484
2.920000E-8	6.250000E-6
2.925000E-8	-0.000259
2.930000E-8	-0.000394
2.935000E-8	-0.000300
2.940000E-8	-0.000272
2.945000E-8	1.562500E-5
2.950000E-8	0.000419
2.955000E-8	0.000941
2.960000E-8	0.001522
2.965000E-8	0.002050
2.970000E-8	0.002625
2.975000E-8	0.003297
2.980000E-8	0.003788
2.985000E-8	0.004275
2.990000E-8	0.004578
2.995000E-8	0.004756
3.000000E-8	0.004750
3.005000E-8	0.004778
3.010000E-8	0.004503
3.015000E-8	0.004078
3.020000E-8	0.003494
3.025000E-8	0.002928
3.030000E-8	0.002394
3.035000E-8	0.001681
3.040000E-8	0.000947
3.045000E-8	0.000372
3.050000E-8	-0.000197
3.055000E-8	-0.000528
3.060000E-8	-0.000788
3.065000E-8	-0.000884
3.070000E-8	-0.000781
3.075000E-8	-0.000556
3.080000E-8	-0.000237
3.085000E-8	0.000287
3.090000E-8	0.000791
3.095000E-8	0.001478
3.100000E-8	0.002066
3.105000E-8	0.002722
3.110000E-8	0.003313
3.115000E-8	0.003800
3.120000E-8	0.004206
3.125000E-8	0.004547
3.130000E-8	0.004647
3.135000E-8	0.004544
3.140000E-8	0.004325
3.145000E-8	0.004003
3.150000E-8	0.003653
3.155000E-8	0.003122
3.160000E-8	0.002503
3.165000E-8	0.001866
3.170000E-8	0.001338
3.175000E-8	0.000766
3.180000E-8	0.000247
3.185000E-8	-4.375000E-5
3.190000E-8	-0.000300
3.195000E-8	-0.000403
3.200000E-8	-0.000509
3.205000E-8	-0.000384
3.210000E-8	-0.000144
3.215000E-8	0.000225
3.220000E-8	0.000706
3.225000E-8	0.001328
3.230000E-8	0.001763
3.235000E-8	0.002400
3.240000E-8	0.002884
3.245000E-8	0.003466
3.250000E-8	0.003863
3.255000E-8	0.004203
3.260000E-8	0.004372
3.265000E-8	0.004444
3.270000E-8	0.004344
3.275000E-8	0.004234
3.280000E-8	0.003741
3.285000E-8	0.003319
3.290000E-8	0.002725
3.295000E-8	0.001984
3.300000E-8	0.001313
3.305000E-8	0.000763
3.310000E-8	0.000253
3.315000E-8	-0.000113
3.320000E-8	-0.000469
3.325000E-8	-0.000691
3.330000E-8	-0.000653
3.335000E-8	-0.000478
3.340000E-8	-0.000253
3.345000E-8	0.000175
3.350000E-8	0.000634
3.355000E-8	0.001313
3.360000E-8	0.001881
3.365000E-8	0.002453
3.370000E-8	0.002988
3.375000E-8	0.003516
3.380000E-8	0.003931
3.385000E-8	0.004313
3.390000E-8	0.004522
3.395000E-8	0.004653
3.400000E-8	0.004447
3.405000E-8	0.004159
3.410000E-8	0.003906
3.415000E-8	0.003484
3.420000E-8	0.002997
3.425000E-8	0.002403
3.430000E-8	0.001794
3.435000E-8	0.001238
3.440000E-8	0.000647
3.445000E-8	0.000284
3.450000E-8	-9.687500E-5
3.455000E-8	-0.000272
3.460000E-8	-0.000478
3.465000E-8	-0.000434
3.470000E-8	-0.000144
3.475000E-8	0.000209
3.480000E-8	0.000606
3.485000E-8	0.001122
3.490000E-8	0.001572
3.495000E-8	0.002141
3.500000E-8	0.002703
3.505000E-8	0.003294
3.510000E-8	0.003728
3.515000E-8	0.004206
3.520000E-8	0.004394
3.525000E-8	0.004359
3.530000E-8	0.004275
3.535000E-8	0.004100
3.540000E-8	0.003841
3.545000E-8	0.003478
3.550000E-8	0.002888
3.555000E-8	0.002253
3.560000E-8	0.001763
3.565000E-8	0.001328
3.570000E-8	0.000806
3.575000E-8	0.000153
3.580000E-8	-0.000263
3.585000E-8	-0.000472
3.590000E-8	-0.000541
3.595000E-8	-0.000463
3.600000E-8	-0.000284
3.605000E-8	5.312500E-5
3.610000E-8	0.000422
3.615000E-8	0.000947
3.620000E-8	0.001550
3.625000E-8	0.002256
3.630000E-8	0.002747
3.635000E-8	0.003297
3.640000E-8	0.003700
3.645000E-8	0.004231
3.650000E-8	0.004441
3.655000E-8	0.004519
3.660000E-8	0.004419
3.665000E-8	0.004291
3.670000E-8	0.004047
3.675000E-8	0.003447
3.680000E-8	0.002797
3.685000E-8	0.002309
3.690000E-8	0.001653
3.695000E-8	0.001159
3.700000E-8	0.000594
3.705000E-8	0.000281
3.710000E-8	2.187500E-5
3.715000E-8	-0.000172
3.720000E-8	-0.000291
3.725000E-8	-6.562500E-5
3.730000E-8	0.000178
3.735000E-8	0.000519
3.740000E-8	0.000841
3.745000E-8	0.001347
3.750000E-8	0.001866
3.755000E-8	0.002306
3.760000E-8	0.002859
3.765000E-8	0.003413
3.770000E-8	0.003819
3.775000E-8	0.004225
3.780000E-8	0.004234
3.785000E-8	0.004334
3.790000E-8	0.004313
3.795000E-8	0.004172
3.800000E-8	0.003853
3.805000E-8	0.003488
3.810000E-8	0.003034
3.815000E-8	0.002606
3.820000E-8	0.002094
3.825000E-8	0.001653
3.830000E-8	0.001266
3.835000E-8	0.001069
3.840000E-8	0.000656
3.845000E-8	0.000444
3.850000E-8	0.000216
3.855000E-8	0.000234
3.860000E-8	0.000194
3.865000E-8	0.000481
3.870000E-8	0.000834
3.875000E-8	0.001247
3.880000E-8	0.001691
3.885000E-8	0.002200
3.890000E-8	0.002716
3.895000E-8	0.003275
3.900000E-8	0.003644
3.905000E-8	0.003903
3.910000E-8	0.003953
3.915000E-8	0.004041
3.920000E-8	0.003944
3.925000E-8	0.003866
3.930000E-8	0.003559
3.935000E-8	0.003241
3.940000E-8	0.002847
3.945000E-8	0.002406
3.950000E-8	0.002087
3.955000E-8	0.001634
3.960000E-8	0.001088
3.965000E-8	0.000819
3.970000E-8	0.000459
3.975000E-8	0.000269
3.980000E-8	1.875000E-5
3.985000E-8	-3.750000E-5
3.990000E-8	-1.562500E-5
3.995000E-8	0.000191
4.000000E-8	0.000478
4.005000E-8	0.000922
4.010000E-8	0.001428
4.015000E-8	0.002084
4.020000E-8	0.002459
4.025000E-8	0.003106
4.030000E-8	0.003494
4.035000E-8	0.003853
4.040000E-8	0.004075
4.045000E-8	0.004219
4.050000E-8	0.004131
4.055000E-8	0.003881
4.060000E-8	0.003581
4.065000E-8	0.003234
4.070000E-8	0.002684
4.075000E-8	0.002381
4.080000E-8	0.001928
4.085000E-8	0.001453
4.090000E-8	0.000966
4.095000E-8	0.000631
4.100000E-8	0.000400
4.105000E-8	0.000225
4.110000E-8	9.687500E-5
4.115000E-8	0.000125
4.120000E-8	0.000219
4.125000E-8	0.000291
4.130000E-8	0.000578
4.135000E-8	0.000925
4.140000E-8	0.001219
4.145000E-8	0.001691
4.150000E-8	0.002175
4.155000E-8	0.002575
4.160000E-8	0.003000
4.165000E-8	0.003347
4.170000E-8	0.003578
4.175000E-8	0.003794
4.180000E-8	0.003809
4.185000E-8	0.003706
4.190000E-8	0.003491
4.195000E-8	0.003259
4.200000E-8	0.002859
4.205000E-8	0.002494
4.210000E-8	0.002172
4.215000E-8	0.001794
4.220000E-8	0.001341
4.225000E-8	0.000944
4.230000E-8	0.000634
4.235000E-8	0.000431
4.240000E-8	0.000153
4.245000E-8	0.000144
4.250000E-8	0.000269
4.255000E-8	0.000409
4.260000E-8	0.000522
4.265000E-8	0.000875
4.270000E-8	0.001222
4.275000E-8	0.001609
4.280000E-8	0.001966
4.285000E-8	0.002453
4.290000E-8	0.002763
4.295000E-8	0.003225
4.300000E-8	0.003391
4.305000E-8	0.003647
4.310000E-8	0.003706
4.315000E-8	0.003791
4.320000E-8	0.003659
4.325000E-8	0.003472
4.330000E-8	0.003150
4.335000E-8	0.002816
4.340000E-8	0.002400
4.345000E-8	0.002019
4.350000E-8	0.001603
4.355000E-8	0.001234
4.360000E-8	0.000884
4.365000E-8	0.000500
4.370000E-8	0.000122
4.375000E-8	3.437500E-5
4.380000E-8	-6.250000E-5
4.385000E-8	2.500000E-5
4.390000E-8	0.000213
4.395000E-8	0.000488
4.400000E-8	0.000834
4.405000E-8	0.001394
4.410000E-8	0.001884
4.415000E-8	0.002466
4.420000E-8	0.002903
4.425000E-8	0.003350
4.430000E-8	0.003672
4.435000E-8	0.003919
4.440000E-8	0.004056
4.445000E-8	0.003975
4.450000E-8	0.003706
4.455000E-8	0.003603
4.460000E-8	0.003275
4.465000E-8	0.002988
4.470000E-8	0.002584
4.475000E-8	0.002119
4.480000E-8	0.001719
4.485000E-8	0.001234
4.490000E-8	0.000925
4.495000E-8	0.000778
4.500000E-8	0.000647
4.505000E-8	0.000591
4.510000E-8	0.000509
4.515000E-8	0.000478
4.520000E-8	0.000563
4.525000E-8	0.000778
4.530000E-8	0.001088
4.535000E-8	0.001450
4.540000E-8	0.001822
4.545000E-8	0.002266
4.550000E-8	0.002569
4.555000E-8	0.003009
4.560000E-8	0.003197
4.565000E-8	0.003481
4.570000E-8	0.003663
4.575000E-8	0.003828
4.580000E-8	0.003619
4.585000E-8	0.003544
4.590000E-8	0.003256
4.595000E-8	0.003162
4.600000E-8	0.002587
4.605000E-8	0.002125
4.610000E-8	0.001744
4.615000E-8	0.001291
4.620000E-8	0.000913
4.625000E-8	0.000556
4.630000E-8	0.000287
4.635000E-8	0.000263
4.640000E-8	0.000231
4.645000E-8	0.000394
4.650000E-8	0.000628
4.655000E-8	0.000988
4.660000E-8	0.001344
4.665000E-8	0.001863
4.670000E-8	0.002225
4.675000E-8	0.002713
4.680000E-8	0.002925
4.685000E-8	0.003306
4.690000E-8	0.003553
4.695000E-8	0.003703
4.700000E-8	0.003806
4.705000E-8	0.003731
4.710000E-8	0.003700
4.715000E-8	0.003563
4.720000E-8	0.003234
4.725000E-8	0.002959
4.730000E-8	0.002684
4.735000E-8	0.002194
4.740000E-8	0.001791
4.745000E-8	0.001459
4.750000E-8	0.001134
4.755000E-8	0.000913
4.760000E-8	0.000716
4.765000E-8	0.000534
4.770000E-8	0.000531
4.775000E-8	0.000581
4.780000E-8	0.000737
4.785000E-8	0.001031
4.790000E-8	0.001303
4.795000E-8	0.001687
4.800000E-8	0.001937
4.805000E-8	0.002309
4.810000E-8	0.002644
4.815000E-8	0.003022
4.820000E-8	0.003256
4.825000E-8	0.003628
4.830000E-8	0.003791
4.835000E-8	0.003766
4.840000E-8	0.003559
4.845000E-8	0.003375
4.850000E-8	0.003047
4.855000E-8	0.002866
4.860000E-8	0.002525
4.865000E-8	0.002119
4.870000E-8	0.001794
4.875000E-8	0.001369
4.880000E-8	0.001056
4.885000E-8	0.000794
4.890000E-8	0.000569
4.895000E-8	0.000584
4.900000E-8	0.000572
4.905000E-8	0.000638
4.910000E-8	0.000831
4.915000E-8	0.001006
4.920000E-8	0.001284
4.925000E-8	0.001616
4.930000E-8	0.001878
4.935000E-8	0.002297
4.940000E-8	0.002572
4.945000E-8	0.002878
4.950000E-8	0.003159
4.955000E-8	0.003453
4.960000E-8	0.003584
4.965000E-8	0.003653
4.970000E-8	0.003519
4.975000E-8	0.003528
4.980000E-8	0.003394
4.985000E-8	0.003162
4.990000E-8	0.002806
4.995000E-8	0.002587
5.000000E-8	0.002141
5.005000E-8	0.001769
5.010000E-8	0.001434
5.015000E-8	0.001050
5.020000E-8	0.000806
5.025000E-8	0.000653
5.030000E-8	0.000488
5.035000E-8	0.000497
5.040000E-8	0.000503
5.045000E-8	0.000644
5.050000E-8	0.000875
5.055000E-8	0.001234
5.060000E-8	0.001531
5.065000E-8	0.001956
5.070000E-8	0.002306
5.075000E-8	0.002725
5.080000E-8	0.003056
5.085000E-8	0.003219
5.090000E-8	0.003350
5.095000E-8	0.003472
5.100000E-8	0.003272
5.105000E-8	0.003253
5.110000E-8	0.003106
5.115000E-8	0.002919
5.120000E-8	0.002450
5.125000E-8	0.002181
5.130000E-8	0.001700
5.135000E-8	0.001403
5.140000E-8	0.001128
5.145000E-8	0.001012
5.150000E-8	0.000838
5.155000E-8	0.000697
5.160000E-8	0.000675
5.165000E-8	0.000756
5.170000E-8	0.000856
5.175000E-8	0.001088
5.180000E-8	0.001313
5.185000E-8	0.001716
5.190000E-8	0.002041
5.195000E-8	0.002334
5.200000E-8	0.002700
5.205000E-8	0.003000
5.210000E-8	0.003313
5.215000E-8	0.003456
5.220000E-8	0.003516
5.225000E-8	0.003631
5.230000E-8	0.003575
5.235000E-8	0.003422
5.240000E-8	0.003347
5.245000E-8	0.003125
5.250000E-8	0.002769
5.255000E-8	0.002478
5.260000E-8	0.002063
5.265000E-8	0.001788
5.270000E-8	0.001441
5.275000E-8	0.001225
5.280000E-8	0.000934
5.285000E-8	0.000763
5.290000E-8	0.000666
5.295000E-8	0.000737
5.300000E-8	0.000612
5.305000E-8	0.000713
5.310000E-8	0.000959
5.315000E-8	0.001225
5.320000E-8	0.001453
5.325000E-8	0.001775
5.330000E-8	0.002106
5.335000E-8	0.002475
5.340000E-8	0.002697
5.345000E-8	0.003003
5.350000E-8	0.003222
5.355000E-8	0.003338
5.360000E-8	0.003416
5.365000E-8	0.003453
5.370000E-8	0.003153
5.375000E-8	0.003028
5.380000E-8	0.002763
5.385000E-8	0.002500
5.390000E-8	0.002069
5.395000E-8	0.001669
5.400000E-8	0.001272
5.405000E-8	0.001000
5.410000E-8	0.000719
5.415000E-8	0.000513
5.420000E-8	0.000519
5.425000E-8	0.000513
5.430000E-8	0.000609
5.435000E-8	0.000994
5.440000E-8	0.001125
5.445000E-8	0.001338
5.450000E-8	0.001612
5.455000E-8	0.002038
5.460000E-8	0.002306
5.465000E-8	0.002503
5.470000E-8	0.002759
5.475000E-8	0.003041
5.480000E-8	0.003184
5.485000E-8	0.003309
5.490000E-8	0.003191
5.495000E-8	0.003263
5.500000E-8	0.003034
5.505000E-8	0.002875
5.510000E-8	0.002572
5.515000E-8	0.002381
5.520000E-8	0.002084
5.525000E-8	0.001919
5.530000E-8	0.001628
5.535000E-8	0.001397
5.540000E-8	0.001094
5.545000E-8	0.000875
5.550000E-8	0.000731
5.555000E-8	0.000759
5.560000E-8	0.000763
5.565000E-8	0.000875
5.570000E-8	0.001003
5.575000E-8	0.001419
5.580000E-8	0.001653
5.585000E-8	0.001844
5.590000E-8	0.002150
5.595000E-8	0.002366
5.600000E-8	0.002506
5.605000E-8	0.002747
5.610000E-8	0.002838
5.615000E-8	0.002900
5.620000E-8	0.003025
5.625000E-8	0.002969
5.630000E-8	0.003087
5.635000E-8	0.002988
5.640000E-8	0.002666
5.645000E-8	0.002500
5.650000E-8	0.002203
5.655000E-8	0.001972
5.660000E-8	0.001641
5.665000E-8	0.001328
5.670000E-8	0.001063
5.675000E-8	0.000797
5.680000E-8	0.000506
5.685000E-8	0.000537
5.690000E-8	0.000516
5.695000E-8	0.000781
5.700000E-8	0.001053
5.705000E-8	0.001419
5.710000E-8	0.001816
5.715000E-8	0.002153
5.720000E-8	0.002544
5.725000E-8	0.002963
5.730000E-8	0.003131
5.735000E-8	0.003400
5.740000E-8	0.003547
5.745000E-8	0.003575
5.750000E-8	0.003506
5.755000E-8	0.003509
5.760000E-8	0.003222
5.765000E-8	0.003028
5.770000E-8	0.003012
5.775000E-8	0.002816
5.780000E-8	0.002591
5.785000E-8	0.002353
5.790000E-8	0.002006
5.795000E-8	0.001803
5.800000E-8	0.001616
5.805000E-8	0.001519
5.810000E-8	0.001384
5.815000E-8	0.001359
5.820000E-8	0.001269
5.825000E-8	0.001319
5.830000E-8	0.001397
5.835000E-8	0.001503
5.840000E-8	0.001738
5.845000E-8	0.001944
5.850000E-8	0.002219
5.855000E-8	0.002503
5.860000E-8	0.002659
5.865000E-8	0.002881
5.870000E-8	0.003022
5.875000E-8	0.003113
5.880000E-8	0.003069
5.885000E-8	0.003059
5.890000E-8	0.002900
5.895000E-8	0.002916
5.900000E-8	0.002572
5.905000E-8	0.002344
5.910000E-8	0.002012
5.915000E-8	0.001853
5.920000E-8	0.001544
5.925000E-8	0.001341
5.930000E-8	0.001091
5.935000E-8	0.000941
5.940000E-8	0.000766
5.945000E-8	0.000756
5.950000E-8	0.000803
5.955000E-8	0.000953
5.960000E-8	0.001084
5.965000E-8	0.001334
5.970000E-8	0.001378
5.975000E-8	0.001653
5.980000E-8	0.001884
5.985000E-8	0.002156
5.990000E-8	0.002413
5.995000E-8	0.002737
6.000000E-8	0.002834
6.005000E-8	0.003012
6.010000E-8	0.002959
6.015000E-8	0.003125
6.020000E-8	0.003063
6.025000E-8	0.002891
6.030000E-8	0.002591
6.035000E-8	0.002478
6.040000E-8	0.002266
6.045000E-8	0.002016
6.050000E-8	0.001725
6.055000E-8	0.001597
6.060000E-8	0.001372
6.065000E-8	0.001175
6.070000E-8	0.001047
6.075000E-8	0.001081
6.080000E-8	0.001075
6.085000E-8	0.001097
6.090000E-8	0.001288
6.095000E-8	0.001591
6.100000E-8	0.001728
6.105000E-8	0.002000
6.110000E-8	0.002253
6.115000E-8	0.002578
6.120000E-8	0.002737
6.125000E-8	0.002941
6.130000E-8	0.003075
6.135000E-8	0.003147
6.140000E-8	0.003116
6.145000E-8	0.003034
6.150000E-8	0.003012
6.155000E-8	0.002797
6.160000E-8	0.002563
6.165000E-8	0.002300
6.170000E-8	0.002194
6.175000E-8	0.002025
6.180000E-8	0.001738
6.185000E-8	0.001497
6.190000E-8	0.001234
6.195000E-8	0.001138
6.200000E-8	0.000894
6.205000E-8	0.000953
6.210000E-8	0.000925
6.215000E-8	0.000966
6.220000E-8	0.001047
6.225000E-8	0.001278
6.230000E-8	0.001500
6.235000E-8	0.001756
6.240000E-8	0.001947
6.245000E-8	0.002134
6.250000E-8	0.002319
6.255000E-8	0.002672
6.260000E-8	0.002775
6.265000E-8	0.003034
6.270000E-8	0.003131
6.275000E-8	0.003122
6.280000E-8	0.003113
6.285000E-8	0.003034
6.290000E-8	0.003016
6.295000E-8	0.002778
6.300000E-8	0.002559
6.305000E-8	0.002431
6.310000E-8	0.002194
6.315000E-8	0.002044
6.320000E-8	0.001769
6.325000E-8	0.001834
6.330000E-8	0.001603
6.335000E-8	0.001541
6.340000E-8	0.001375
6.345000E-8	0.001378
6.350000E-8	0.001381
6.355000E-8	0.001544
6.360000E-8	0.001559
6.365000E-8	0.001741
6.370000E-8	0.001925
6.375000E-8	0.002188
6.380000E-8	0.002397
6.385000E-8	0.002634
6.390000E-8	0.002863
6.395000E-8	0.002991
6.400000E-8	0.003097
6.405000E-8	0.003213
6.410000E-8	0.003309
6.415000E-8	0.003172
6.420000E-8	0.003084
6.425000E-8	0.002963
6.430000E-8	0.002847
6.435000E-8	0.002609
6.440000E-8	0.002300
6.445000E-8	0.002075
6.450000E-8	0.001831
6.455000E-8	0.001578
6.460000E-8	0.001306
6.465000E-8	0.001166
6.470000E-8	0.001031
6.475000E-8	0.001053
6.480000E-8	0.001103
6.485000E-8	0.001297
6.490000E-8	0.001331
6.495000E-8	0.001588
6.500000E-8	0.001709
6.505000E-8	0.001884
6.510000E-8	0.002016
6.515000E-8	0.002291
6.520000E-8	0.002538
6.525000E-8	0.002731
6.530000E-8	0.002769
6.535000E-8	0.002878
6.540000E-8	0.002900
6.545000E-8	0.002947
6.550000E-8	0.002956
6.555000E-8	0.002831
6.560000E-8	0.002591
6.565000E-8	0.002366
6.570000E-8	0.002122
6.575000E-8	0.001969
6.580000E-8	0.001681
6.585000E-8	0.001516
6.590000E-8	0.001347
6.595000E-8	0.001200
6.600000E-8	0.001172
6.605000E-8	0.001303
6.610000E-8	0.001341
6.615000E-8	0.001409
6.620000E-8	0.001547
6.625000E-8	0.001731
6.630000E-8	0.001984
6.635000E-8	0.002306
6.640000E-8	0.002522
6.645000E-8	0.002825
6.650000E-8	0.002988
6.655000E-8	0.003134
6.660000E-8	0.003297
6.665000E-8	0.003309
6.670000E-8	0.003388
6.675000E-8	0.003416
6.680000E-8	0.003200
6.685000E-8	0.003162
6.690000E-8	0.002969
6.695000E-8	0.002688
6.700000E-8	0.002419
6.705000E-8	0.002272
6.710000E-8	0.001928
6.715000E-8	0.001800
6.720000E-8	0.001606
6.725000E-8	0.001525
6.730000E-8	0.001437
6.735000E-8	0.001428
6.740000E-8	0.001472
6.745000E-8	0.001603
6.750000E-8	0.001594
6.755000E-8	0.001728
6.760000E-8	0.001741
6.765000E-8	0.002094
6.770000E-8	0.002109
6.775000E-8	0.002316
6.780000E-8	0.002441
6.785000E-8	0.002609
6.790000E-8	0.002763
6.795000E-8	0.002916
6.800000E-8	0.002988
6.805000E-8	0.002919
6.810000E-8	0.002737
6.815000E-8	0.002781
6.820000E-8	0.002638
6.825000E-8	0.002394
6.830000E-8	0.002216
6.835000E-8	0.002009
6.840000E-8	0.001847
6.845000E-8	0.001644
6.850000E-8	0.001497
6.855000E-8	0.001347
6.860000E-8	0.001209
6.865000E-8	0.001294
6.870000E-8	0.001403
6.875000E-8	0.001500
6.880000E-8	0.001538
6.885000E-8	0.001788
6.890000E-8	0.001969
6.895000E-8	0.002216
6.900000E-8	0.002491
6.905000E-8	0.002700
6.910000E-8	0.002763
6.915000E-8	0.002875
6.920000E-8	0.002984
6.925000E-8	0.003047
6.930000E-8	0.003038
6.935000E-8	0.003238
6.940000E-8	0.003069
6.945000E-8	0.002888
6.950000E-8	0.002688
6.955000E-8	0.002600
6.960000E-8	0.002397
6.965000E-8	0.002225
6.970000E-8	0.002056
6.975000E-8	0.001853
6.980000E-8	0.001538
6.985000E-8	0.001341
6.990000E-8	0.001166
6.995000E-8	0.001144
7.000000E-8	0.001006
7.005000E-8	0.001116
7.010000E-8	0.001328
7.015000E-8	0.001459
7.020000E-8	0.001575
7.025000E-8	0.001897
7.030000E-8	0.002041
7.035000E-8	0.002306
7.040000E-8	0.002378
7.045000E-8	0.002634
7.050000E-8	0.002672
7.055000E-8	0.002672
7.060000E-8	0.002709
7.065000E-8	0.002737
7.070000E-8	0.002706
7.075000E-8	0.002647
7.080000E-8	0.002509
7.085000E-8	0.002475
7.090000E-8	0.002303
7.095000E-8	0.002369
7.100000E-8	0.002047
7.105000E-8	0.001959
7.110000E-8	0.001725
7.115000E-8	0.001578
7.120000E-8	0.001463
7.125000E-8	0.001388
7.130000E-8	0.001297
7.135000E-8	0.001303
7.140000E-8	0.001353
7.145000E-8	0.001509
7.150000E-8	0.001650
7.155000E-8	0.001919
7.160000E-8	0.002047
7.165000E-8	0.002200
7.170000E-8	0.002384
7.175000E-8	0.002613
7.180000E-8	0.002625
7.185000E-8	0.002666
7.190000E-8	0.002784
7.195000E-8	0.002734
7.200000E-8	0.002638
7.205000E-8	0.002581
7.210000E-8	0.002669
7.215000E-8	0.002528
7.220000E-8	0.002437
7.225000E-8	0.002378
7.230000E-8	0.002297
7.235000E-8	0.002147
7.240000E-8	0.002134
7.245000E-8	0.002009
7.250000E-8	0.001756
7.255000E-8	0.001706
7.260000E-8	0.001594
7.265000E-8	0.001631
7.270000E-8	0.001584
7.275000E-8	0.001584
7.280000E-8	0.001634
7.285000E-8	0.001838
7.290000E-8	0.001847
7.295000E-8	0.002091
7.300000E-8	0.002203
7.305000E-8	0.002463
7.310000E-8	0.002703
7.315000E-8	0.002881
7.320000E-8	0.002891
7.325000E-8	0.002888
7.330000E-8	0.002847
7.335000E-8	0.002863
7.340000E-8	0.002703
7.345000E-8	0.002569
7.350000E-8	0.002272
7.355000E-8	0.002059
7.360000E-8	0.001825
7.365000E-8	0.001725
7.370000E-8	0.001606
7.375000E-8	0.001572
7.380000E-8	0.001478
7.385000E-8	0.001528
7.390000E-8	0.001597
7.395000E-8	0.001684
7.400000E-8	0.001647
7.405000E-8	0.001756
7.410000E-8	0.001697
7.415000E-8	0.001816
7.420000E-8	0.001963
7.425000E-8	0.002044
7.430000E-8	0.002116
7.435000E-8	0.002234
7.440000E-8	0.002278
7.445000E-8	0.002512
7.450000E-8	0.002753
7.455000E-8	0.002900
7.460000E-8	0.002938
7.465000E-8	0.003016
7.470000E-8	0.002903
7.475000E-8	0.002722
7.480000E-8	0.002434
7.485000E-8	0.002369
7.490000E-8	0.002147
7.495000E-8	0.001997
7.500000E-8	0.001741
7.505000E-8	0.001556
7.510000E-8	0.001419
7.515000E-8	0.001491
7.520000E-8	0.001300
7.525000E-8	0.001500
7.530000E-8	0.001578
7.535000E-8	0.001778
7.540000E-8	0.001834
7.545000E-8	0.001869
7.550000E-8	0.002075
7.555000E-8	0.002263
7.560000E-8	0.002394
7.565000E-8	0.002441
7.570000E-8	0.002450
7.575000E-8	0.002684
7.580000E-8	0.002625
7.585000E-8	0.002616
7.590000E-8	0.002391
7.595000E-8	0.002466
7.600000E-8	0.002256
7.605000E-8	0.002028
7.610000E-8	0.001791
7.615000E-8	0.001672
7.620000E-8	0.001500
7.625000E-8	0.001422
7.630000E-8	0.001306
7.635000E-8	0.001291
7.640000E-8	0.001241
7.645000E-8	0.001284
7.650000E-8	0.001362
7.655000E-8	0.001450
7.660000E-8	0.001541
7.665000E-8	0.001694
7.670000E-8	0.001894
7.675000E-8	0.002066
7.680000E-8	0.002147
7.685000E-8	0.002291
7.690000E-8	0.002319
7.695000E-8	0.002478
7.700000E-8	0.002466
7.705000E-8	0.002472
7.710000E-8	0.002491
7.715000E-8	0.002531
7.720000E-8	0.002459
7.725000E-8	0.002434
7.730000E-8	0.002484
7.735000E-8	0.002434
7.740000E-8	0.002281
7.745000E-8	0.002184
7.750000E-8	0.002053
7.755000E-8	0.001941
7.760000E-8	0.001831
7.765000E-8	0.001675
7.770000E-8	0.001584
7.775000E-8	0.001619
7.780000E-8	0.001609
7.785000E-8	0.001594
7.790000E-8	0.001578
7.795000E-8	0.001663
7.800000E-8	0.001750
7.805000E-8	0.001913
7.810000E-8	0.002038
7.815000E-8	0.002272
7.820000E-8	0.002413
7.825000E-8	0.002463
7.830000E-8	0.002628
7.835000E-8	0.002700
7.840000E-8	0.002700
7.845000E-8	0.002734
7.850000E-8	0.002772
7.855000E-8	0.002841
7.860000E-8	0.002866
7.865000E-8	0.002872
7.870000E-8	0.002769
7.875000E-8	0.002544
7.880000E-8	0.002375
7.885000E-8	0.002325
7.890000E-8	0.002025
7.895000E-8	0.001888
7.900000E-8	0.001719
7.905000E-8	0.001603
7.910000E-8	0.001391
7.915000E-8	0.001422
7.920000E-8	0.001375
7.925000E-8	0.001350
7.930000E-8	0.001494
7.935000E-8	0.001628
7.940000E-8	0.001591
7.945000E-8	0.001788
7.950000E-8	0.001934
7.955000E-8	0.002131
7.960000E-8	0.002269
7.965000E-8	0.002347
7.970000E-8	0.002453
7.975000E-8	0.002466
7.980000E-8	0.002491
7.985000E-8	0.002584
7.990000E-8	0.002638
7.995000E-8	0.002544
8.000000E-8	0.002481
8.005000E-8	0.002378
8.010000E-8	0.002213
8.015000E-8	0.002303
8.020000E-8	0.002084
8.025000E-8	0.002041
8.030000E-8	0.002053
8.035000E-8	0.002044
8.040000E-8	0.002025
8.045000E-8	0.001963
8.050000E-8	0.001994
8.055000E-8	0.002000
8.060000E-8	0.001981
8.065000E-8	0.001903
8.070000E-8	0.001894
8.075000E-8	0.002012
8.080000E-8	0.002069
8.085000E-8	0.002184
8.090000E-8	0.002275
8.095000E-8	0.002447
8.100000E-8	0.002506
8.105000E-8	0.002556
8.110000E-8	0.002491
8.115000E-8	0.002519
8.120000E-8	0.002453
8.125000E-8	0.002375
8.130000E-8	0.002272
8.135000E-8	0.002078
8.140000E-8	0.001984
8.145000E-8	0.001919
8.150000E-8	0.001809
8.155000E-8	0.001781
8.160000E-8	0.001669
8.165000E-8	0.001591
8.170000E-8	0.001538
8.175000E-8	0.001569
8.180000E-8	0.001706
8.185000E-8	0.001719
8.190000E-8	0.001734
8.195000E-8	0.002003
8.200000E-8	0.001937
8.205000E-8	0.002087
8.210000E-8	0.002159
8.215000E-8	0.002213
8.220000E-8	0.002369
8.225000E-8	0.002459
8.230000E-8	0.002481
8.235000E-8	0.002500
8.240000E-8	0.002456
8.245000E-8	0.002559
8.250000E-8	0.002431
8.255000E-8	0.002553
8.260000E-8	0.002478
8.265000E-8	0.002322
8.270000E-8	0.002284
8.275000E-8	0.002222
8.280000E-8	0.002169
8.285000E-8	0.002041
8.290000E-8	0.002019
8.295000E-8	0.001975
8.300000E-8	0.001775
8.305000E-8	0.001672
8.310000E-8	0.001706
8.315000E-8	0.001800
8.320000E-8	0.001825
8.325000E-8	0.001763
8.330000E-8	0.001734
8.335000E-8	0.001784
8.340000E-8	0.001897
8.345000E-8	0.002016
8.350000E-8	0.002122
8.355000E-8	0.002375
8.360000E-8	0.002372
8.365000E-8	0.002441
8.370000E-8	0.002609
8.375000E-8	0.002722
8.380000E-8	0.002694
8.385000E-8	0.002625
8.390000E-8	0.002516
8.395000E-8	0.002547
8.400000E-8	0.002250
8.405000E-8	0.002131
8.410000E-8	0.001894
8.415000E-8	0.001797
8.420000E-8	0.001603
8.425000E-8	0.001631
8.430000E-8	0.001588
8.435000E-8	0.001663
8.440000E-8	0.001603
8.445000E-8	0.001666
8.450000E-8	0.001778
8.455000E-8	0.002012
8.460000E-8	0.002091
8.465000E-8	0.002144
8.470000E-8	0.002241
8.475000E-8	0.002263
8.480000E-8	0.002344
8.485000E-8	0.002294
8.490000E-8	0.002156
8.495000E-8	0.002128
8.500000E-8	0.002166
8.505000E-8	0.002169
8.510000E-8	0.002113
8.515000E-8	0.002103
8.520000E-8	0.002144
8.525000E-8	0.002141
8.530000E-8	0.002072
8.535000E-8	0.002141
8.540000E-8	0.002034
8.545000E-8	0.001881
8.550000E-8	0.001772
8.555000E-8	0.001669
8.560000E-8	0.001578
8.565000E-8	0.001588
8.570000E-8	0.001478
8.575000E-8	0.001494
8.580000E-8	0.001506
8.585000E-8	0.001544
8.590000E-8	0.001728
8.595000E-8	0.002028
8.600000E-8	0.001994
8.605000E-8	0.002172
8.610000E-8	0.002231
8.615000E-8	0.002459
8.620000E-8	0.002441
8.625000E-8	0.002531
8.630000E-8	0.002550
8.635000E-8	0.002547
8.640000E-8	0.002506
8.645000E-8	0.002478
8.650000E-8	0.002325
8.655000E-8	0.002334
8.660000E-8	0.002213
8.665000E-8	0.002031
8.670000E-8	0.001884
8.675000E-8	0.001825
8.680000E-8	0.001788
8.685000E-8	0.001681
8.690000E-8	0.001572
8.695000E-8	0.001516
8.700000E-8	0.001584
8.705000E-8	0.001656
8.710000E-8	0.001647
8.715000E-8	0.001678
8.720000E-8	0.001684
8.725000E-8	0.001803
8.730000E-8	0.001866
8.735000E-8	0.001972
8.740000E-8	0.002047
8.745000E-8	0.002253
8.750000E-8	0.002275
8.755000E-8	0.002344
8.760000E-8	0.002309
8.765000E-8	0.002356
8.770000E-8	0.002281
8.775000E-8	0.002297
8.780000E-8	0.002178
8.785000E-8	0.002241
8.790000E-8	0.002066
8.795000E-8	0.002056
8.800000E-8	0.002012
8.805000E-8	0.001972
8.810000E-8	0.001859
8.815000E-8	0.001866
8.820000E-8	0.001891
8.825000E-8	0.001875
8.830000E-8	0.002022
8.835000E-8	0.002206
8.840000E-8	0.002078
8.845000E-8	0.002206
8.850000E-8	0.002169
8.855000E-8	0.002328
8.860000E-8	0.002300
8.865000E-8	0.002369
8.870000E-8	0.002353
8.875000E-8	0.002428
8.880000E-8	0.002463
8.885000E-8	0.002406
8.890000E-8	0.002478
8.895000E-8	0.002606
8.900000E-8	0.002628
8.905000E-8	0.002659
8.910000E-8	0.002797
8.915000E-8	0.002825
8.920000E-8	0.002722
8.925000E-8	0.002747
8.930000E-8	0.002538
8.935000E-8	0.002394
8.940000E-8	0.002206
8.945000E-8	0.002091
8.950000E-8	0.001884
8.955000E-8	0.001831
8.960000E-8	0.001713
8.965000E-8	0.001872
8.970000E-8	0.001725
8.975000E-8	0.001841
8.980000E-8	0.001878
8.985000E-8	0.002044
8.990000E-8	0.002225
8.995000E-8	0.002263
9.000000E-8	0.002434
9.005000E-8	0.002475
9.010000E-8	0.002622
9.015000E-8	0.002606
9.020000E-8	0.002675
9.025000E-8	0.002684
9.030000E-8	0.002600
9.035000E-8	0.002625
9.040000E-8	0.002456
9.045000E-8	0.002416
9.050000E-8	0.002188
9.055000E-8	0.002072
9.060000E-8	0.001963
9.065000E-8	0.001859
9.070000E-8	0.001641
9.075000E-8	0.001647
9.080000E-8	0.001559
9.085000E-8	0.001513
9.090000E-8	0.001353
9.095000E-8	0.001563
9.100000E-8	0.001550
9.105000E-8	0.001722
9.110000E-8	0.001881
9.115000E-8	0.001959
9.120000E-8	0.001966
9.125000E-8	0.002122
9.130000E-8	0.002162
9.135000E-8	0.002184
9.140000E-8	0.002197
9.145000E-8	0.002353
9.150000E-8	0.002303
9.155000E-8	0.002322
9.160000E-8	0.002366
9.165000E-8	0.002281
9.170000E-8	0.002219
9.175000E-8	0.002281
9.180000E-8	0.002253
9.185000E-8	0.002309
9.190000E-8	0.002309
9.195000E-8	0.002431
9.200000E-8	0.002388
9.205000E-8	0.002484
9.210000E-8	0.002347
9.215000E-8	0.002325
9.220000E-8	0.002175
9.225000E-8	0.002162
9.230000E-8	0.002097
9.235000E-8	0.002041
9.240000E-8	0.002000
9.245000E-8	0.002028
9.250000E-8	0.002056
9.255000E-8	0.002075
9.260000E-8	0.002131
9.265000E-8	0.002256
9.270000E-8	0.002269
9.275000E-8	0.002469
9.280000E-8	0.002547
9.285000E-8	0.002553
9.290000E-8	0.002444
9.295000E-8	0.002484
9.300000E-8	0.002384
9.305000E-8	0.002394
9.310000E-8	0.002459
9.315000E-8	0.002422
9.320000E-8	0.002384
9.325000E-8	0.002316
9.330000E-8	0.002209
9.335000E-8	0.002256
9.340000E-8	0.002109
9.345000E-8	0.002094
9.350000E-8	0.001984
9.355000E-8	0.002038
9.360000E-8	0.001919
9.365000E-8	0.001816
9.370000E-8	0.001759
9.375000E-8	0.001863
9.380000E-8	0.002019
9.385000E-8	0.002006
9.390000E-8	0.002175
9.395000E-8	0.002288
9.400000E-8	0.002378
9.405000E-8	0.002559
9.410000E-8	0.002525
9.415000E-8	0.002625
9.420000E-8	0.002525
9.425000E-8	0.002569
9.430000E-8	0.002425
9.435000E-8	0.002381
9.440000E-8	0.002291
9.445000E-8	0.002169
9.450000E-8	0.001928
9.455000E-8	0.001872
9.460000E-8	0.001772
9.465000E-8	0.001616
9.470000E-8	0.001534
9.475000E-8	0.001659
9.480000E-8	0.001759
9.485000E-8	0.001731
9.490000E-8	0.001744
9.495000E-8	0.001853
9.500000E-8	0.001844
9.505000E-8	0.001859
9.510000E-8	0.002028
9.515000E-8	0.002044
9.520000E-8	0.001959
9.525000E-8	0.002203
9.530000E-8	0.002075
9.535000E-8	0.002156
9.540000E-8	0.002197
9.545000E-8	0.002375
9.550000E-8	0.002281
9.555000E-8	0.002284
9.560000E-8	0.002256
9.565000E-8	0.002341
9.570000E-8	0.002278
9.575000E-8	0.002381
9.580000E-8	0.002219
9.585000E-8	0.002313
9.590000E-8	0.002175
9.595000E-8	0.002247
9.600000E-8	0.002181
9.605000E-8	0.002228
9.610000E-8	0.002147
9.615000E-8	0.002203
9.620000E-8	0.002066
9.625000E-8	0.001950
9.630000E-8	0.001975
9.635000E-8	0.001869
9.640000E-8	0.001819
9.645000E-8	0.001825
9.650000E-8	0.001806
9.655000E-8	0.001925
9.660000E-8	0.001869
9.665000E-8	0.001922
9.670000E-8	0.002038
9.675000E-8	0.002247
9.680000E-8	0.002244
9.685000E-8	0.002428
9.690000E-8	0.002431
9.695000E-8	0.002578
9.700000E-8	0.002550
9.705000E-8	0.002616
9.710000E-8	0.002609
9.715000E-8	0.002488
9.720000E-8	0.002366
9.725000E-8	0.002309
9.730000E-8	0.002241
9.735000E-8	0.002175
9.740000E-8	0.001881
9.745000E-8	0.001937
9.750000E-8	0.001988
9.755000E-8	0.001959
9.760000E-8	0.001894
9.765000E-8	0.001791
9.770000E-8	0.001781
9.775000E-8	0.001891
9.780000E-8	0.001825
9.785000E-8	0.001819
9.790000E-8	0.001969
9.795000E-8	0.002066
9.800000E-8	0.002038
9.805000E-8	0.002122
9.810000E-8	0.002197
9.815000E-8	0.002313
9.820000E-8	0.002213
9.825000E-8	0.002162
9.830000E-8	0.002138
9.835000E-8	0.002156
9.840000E-8	0.002153
9.845000E-8	0.002191
9.850000E-8	0.001972
9.855000E-8	0.001963
9.860000E-8	0.002031
9.865000E-8	0.002072
9.870000E-8	0.002119
9.875000E-8	0.002119
9.880000E-8	0.001978
9.885000E-8	0.001991
9.890000E-8	0.001925
9.895000E-8	0.001991
9.900000E-8	0.001859
9.905000E-8	0.002000
9.910000E-8	0.002122
9.915000E-8	0.002138
9.920000E-8	0.002250
9.925000E-8	0.002213
9.930000E-8	0.002350
9.935000E-8	0.002441
9.940000E-8	0.002406
9.945000E-8	0.002616
9.950000E-8	0.002550
9.955000E-8	0.002553
9.960000E-8	0.002472
9.965000E-8	0.002416
9.970000E-8	0.002263
9.975000E-8	0.002166
9.980000E-8	0.002022
9.985000E-8	0.001991
9.990000E-8	0.001953
9.995000E-8	0.001900
