LabVIEW Measurement	
Writer_Version	2
Reader_Version	2
Separator	Tab
Decimal_Separator	.
Multi_Headings	No
X_Columns	Multi
Time_Pref	Relative
Operator	TG lab
Date	2015/03/06
Time	16:22:37.4685869216918945313
***End_of_Header***	
	
Channels	1	
Samples	2000	
Date	1903/12/31	
Time	19:00:00	
X_Dimension	Time	
X0	0.0000000000000000E+0	
Delta_X	5.000000E-11	
***End_of_Header***		
X_Value	Untitled	Comment
0.000000	0.002159
5.000000E-11	0.002253
1.000000E-10	0.002306
1.500000E-10	0.002300
2.000000E-10	0.002253
2.500000E-10	0.002291
3.000000E-10	0.002203
3.500000E-10	0.002313
4.000000E-10	0.002131
4.500000E-10	0.002153
5.000000E-10	0.002341
5.500000E-10	0.002384
6.000000E-10	0.002378
6.500000E-10	0.002419
7.000000E-10	0.002422
7.500000E-10	0.002550
8.000000E-10	0.002516
8.500000E-10	0.002569
9.000000E-10	0.002478
9.500000E-10	0.002391
1.000000E-9	0.002325
1.050000E-9	0.002331
1.100000E-9	0.002322
1.150000E-9	0.002388
1.200000E-9	0.002244
1.250000E-9	0.002191
1.300000E-9	0.002241
1.350000E-9	0.002263
1.400000E-9	0.002144
1.450000E-9	0.002131
1.500000E-9	0.002109
1.550000E-9	0.002219
1.600000E-9	0.002156
1.650000E-9	0.002169
1.700000E-9	0.002169
1.750000E-9	0.002234
1.800000E-9	0.002094
1.850000E-9	0.002356
1.900000E-9	0.002334
1.950000E-9	0.002416
2.000000E-9	0.002416
2.050000E-9	0.002456
2.100000E-9	0.002503
2.150000E-9	0.002506
2.200000E-9	0.002403
2.250000E-9	0.002347
2.300000E-9	0.002194
2.350000E-9	0.002294
2.400000E-9	0.002266
2.450000E-9	0.002206
2.500000E-9	0.002063
2.550000E-9	0.002159
2.600000E-9	0.002216
2.650000E-9	0.002281
2.700000E-9	0.002234
2.750000E-9	0.002369
2.800000E-9	0.002222
2.850000E-9	0.002247
2.900000E-9	0.002209
2.950000E-9	0.002181
3.000000E-9	0.002038
3.050000E-9	0.001853
3.100000E-9	0.001834
3.150000E-9	0.001788
3.200000E-9	0.001834
3.250000E-9	0.001838
3.300000E-9	0.001937
3.350000E-9	0.001981
3.400000E-9	0.002003
3.450000E-9	0.002084
3.500000E-9	0.002059
3.550000E-9	0.002153
3.600000E-9	0.002278
3.650000E-9	0.002237
3.700000E-9	0.002081
3.750000E-9	0.002069
3.800000E-9	0.002012
3.850000E-9	0.002116
3.900000E-9	0.002203
3.950000E-9	0.002228
4.000000E-9	0.002228
4.050000E-9	0.002269
4.100000E-9	0.002281
4.150000E-9	0.002309
4.200000E-9	0.002191
4.250000E-9	0.002237
4.300000E-9	0.002063
4.350000E-9	0.002075
4.400000E-9	0.001994
4.450000E-9	0.001947
4.500000E-9	0.001831
4.550000E-9	0.001906
4.600000E-9	0.001894
4.650000E-9	0.001966
4.700000E-9	0.001978
4.750000E-9	0.001969
4.800000E-9	0.001919
4.850000E-9	0.001941
4.900000E-9	0.002003
4.950000E-9	0.002122
5.000000E-9	0.002053
5.050000E-9	0.002025
5.100000E-9	0.001878
5.150000E-9	0.001853
5.200000E-9	0.001806
5.250000E-9	0.001828
5.300000E-9	0.001750
5.350000E-9	0.001691
5.400000E-9	0.001863
5.450000E-9	0.001884
5.500000E-9	0.001994
5.550000E-9	0.002003
5.600000E-9	0.002022
5.650000E-9	0.002031
5.700000E-9	0.002006
5.750000E-9	0.001931
5.800000E-9	0.001828
5.850000E-9	0.001687
5.900000E-9	0.001650
5.950000E-9	0.001591
6.000000E-9	0.001766
6.050000E-9	0.001719
6.100000E-9	0.001753
6.150000E-9	0.001791
6.200000E-9	0.001978
6.250000E-9	0.002006
6.300000E-9	0.001928
6.350000E-9	0.001881
6.400000E-9	0.001881
6.450000E-9	0.001813
6.500000E-9	0.001775
6.550000E-9	0.001800
6.600000E-9	0.001638
6.650000E-9	0.001634
6.700000E-9	0.001506
6.750000E-9	0.001597
6.800000E-9	0.001641
6.850000E-9	0.001769
6.900000E-9	0.001975
6.950000E-9	0.002081
7.000000E-9	0.002213
7.050000E-9	0.002338
7.100000E-9	0.002331
7.150000E-9	0.002416
7.200000E-9	0.002478
7.250000E-9	0.002556
7.300000E-9	0.002697
7.350000E-9	0.002828
7.400000E-9	0.003128
7.450000E-9	0.003388
7.500000E-9	0.003706
7.550000E-9	0.004122
7.600000E-9	0.004575
7.650000E-9	0.005000
7.700000E-9	0.005131
7.750000E-9	0.005047
7.800000E-9	0.004537
7.850000E-9	0.003653
7.900000E-9	0.002128
7.950000E-9	0.000197
8.000000E-9	-0.002244
8.050000E-9	-0.005006
8.100000E-9	-0.008228
8.150000E-9	-0.011684
8.200000E-9	-0.015009
8.250000E-9	-0.018256
8.300000E-9	-0.021228
8.350000E-9	-0.023600
8.400000E-9	-0.025625
8.450000E-9	-0.026838
8.500000E-9	-0.027572
8.550000E-9	-0.027625
8.600000E-9	-0.027069
8.650000E-9	-0.025869
8.700000E-9	-0.024216
8.750000E-9	-0.022481
8.800000E-9	-0.020584
8.850000E-9	-0.018522
8.900000E-9	-0.016825
8.950000E-9	-0.015375
9.000000E-9	-0.014522
9.050000E-9	-0.013862
9.100000E-9	-0.013759
9.150000E-9	-0.014050
9.200000E-9	-0.014688
9.250000E-9	-0.015328
9.300000E-9	-0.016059
9.350000E-9	-0.016875
9.400000E-9	-0.017491
9.450000E-9	-0.017716
9.500000E-9	-0.017581
9.550000E-9	-0.017166
9.600000E-9	-0.016244
9.650000E-9	-0.015141
9.700000E-9	-0.013678
9.750000E-9	-0.012144
9.800000E-9	-0.010691
9.850000E-9	-0.009316
9.900000E-9	-0.008103
9.950000E-9	-0.007022
1.000000E-8	-0.006572
1.005000E-8	-0.006278
1.010000E-8	-0.006428
1.015000E-8	-0.006844
1.020000E-8	-0.007541
1.025000E-8	-0.008219
1.030000E-8	-0.009066
1.035000E-8	-0.009613
1.040000E-8	-0.010103
1.045000E-8	-0.010303
1.050000E-8	-0.010222
1.055000E-8	-0.009713
1.060000E-8	-0.009034
1.065000E-8	-0.008103
1.070000E-8	-0.006959
1.075000E-8	-0.005775
1.080000E-8	-0.004622
1.085000E-8	-0.003500
1.090000E-8	-0.002644
1.095000E-8	-0.002069
1.100000E-8	-0.001709
1.105000E-8	-0.001672
1.110000E-8	-0.001991
1.115000E-8	-0.002422
1.120000E-8	-0.003063
1.125000E-8	-0.003809
1.130000E-8	-0.004400
1.135000E-8	-0.004903
1.140000E-8	-0.005428
1.145000E-8	-0.005578
1.150000E-8	-0.005491
1.155000E-8	-0.005116
1.160000E-8	-0.004703
1.165000E-8	-0.003772
1.170000E-8	-0.002891
1.175000E-8	-0.001859
1.180000E-8	-0.000975
1.185000E-8	1.562500E-5
1.190000E-8	0.000719
1.195000E-8	0.001078
1.200000E-8	0.001284
1.205000E-8	0.001125
1.210000E-8	0.000631
1.215000E-8	-0.000116
1.220000E-8	-0.000903
1.225000E-8	-0.001694
1.230000E-8	-0.002484
1.235000E-8	-0.003141
1.240000E-8	-0.003656
1.245000E-8	-0.003884
1.250000E-8	-0.003962
1.255000E-8	-0.003534
1.260000E-8	-0.003063
1.265000E-8	-0.002316
1.270000E-8	-0.001475
1.275000E-8	-0.000534
1.280000E-8	0.000347
1.285000E-8	0.000981
1.290000E-8	0.001647
1.295000E-8	0.002056
1.300000E-8	0.002087
1.305000E-8	0.001981
1.310000E-8	0.001469
1.315000E-8	0.000869
1.320000E-8	4.062500E-5
1.325000E-8	-0.000631
1.330000E-8	-0.001488
1.335000E-8	-0.002056
1.340000E-8	-0.002484
1.345000E-8	-0.002669
1.350000E-8	-0.002619
1.355000E-8	-0.002153
1.360000E-8	-0.001416
1.365000E-8	-0.000544
1.370000E-8	0.000319
1.375000E-8	0.001209
1.380000E-8	0.002006
1.385000E-8	0.002734
1.390000E-8	0.003078
1.395000E-8	0.003266
1.400000E-8	0.003081
1.405000E-8	0.002781
1.410000E-8	0.002222
1.415000E-8	0.001528
1.420000E-8	0.000722
1.425000E-8	-6.875000E-5
1.430000E-8	-0.000859
1.435000E-8	-0.001516
1.440000E-8	-0.001913
1.445000E-8	-0.001894
1.450000E-8	-0.001828
1.455000E-8	-0.001369
1.460000E-8	-0.000794
1.465000E-8	0.000131
1.470000E-8	0.000894
1.475000E-8	0.001863
1.480000E-8	0.002641
1.485000E-8	0.003169
1.490000E-8	0.003519
1.495000E-8	0.003722
1.500000E-8	0.003547
1.505000E-8	0.003038
1.510000E-8	0.002394
1.515000E-8	0.001541
1.520000E-8	0.000591
1.525000E-8	-0.000147
1.530000E-8	-0.000891
1.535000E-8	-0.001397
1.540000E-8	-0.001684
1.545000E-8	-0.001719
1.550000E-8	-0.001513
1.555000E-8	-0.000906
1.560000E-8	-8.125000E-5
1.565000E-8	0.000725
1.570000E-8	0.001622
1.575000E-8	0.002625
1.580000E-8	0.003391
1.585000E-8	0.003934
1.590000E-8	0.004081
1.595000E-8	0.004191
1.600000E-8	0.003703
1.605000E-8	0.003222
1.610000E-8	0.002406
1.615000E-8	0.001506
1.620000E-8	0.000612
1.625000E-8	-0.000219
1.630000E-8	-0.000978
1.635000E-8	-0.001453
1.640000E-8	-0.001556
1.645000E-8	-0.001291
1.650000E-8	-0.000938
1.655000E-8	-7.812500E-5
1.660000E-8	0.000703
1.665000E-8	0.001775
1.670000E-8	0.002587
1.675000E-8	0.003594
1.680000E-8	0.004175
1.685000E-8	0.004631
1.690000E-8	0.004662
1.695000E-8	0.004484
1.700000E-8	0.003947
1.705000E-8	0.003128
1.710000E-8	0.002225
1.715000E-8	0.001206
1.720000E-8	0.000256
1.725000E-8	-0.000506
1.730000E-8	-0.001009
1.735000E-8	-0.001194
1.740000E-8	-0.001141
1.745000E-8	-0.000797
1.750000E-8	-0.000169
1.755000E-8	0.000588
1.760000E-8	0.001625
1.765000E-8	0.002613
1.770000E-8	0.003353
1.775000E-8	0.003975
1.780000E-8	0.004350
1.785000E-8	0.004484
1.790000E-8	0.004184
1.795000E-8	0.003825
1.800000E-8	0.003119
1.805000E-8	0.002281
1.810000E-8	0.001331
1.815000E-8	0.000544
1.820000E-8	-0.000359
1.825000E-8	-0.000788
1.830000E-8	-0.001125
1.835000E-8	-0.001200
1.840000E-8	-0.001009
1.845000E-8	-0.000500
1.850000E-8	0.000163
1.855000E-8	0.001103
1.860000E-8	0.001903
1.865000E-8	0.002781
1.870000E-8	0.003313
1.875000E-8	0.003844
1.880000E-8	0.004006
1.885000E-8	0.004000
1.890000E-8	0.003769
1.895000E-8	0.003228
1.900000E-8	0.002494
1.905000E-8	0.001816
1.910000E-8	0.001103
1.915000E-8	0.000272
1.920000E-8	-0.000300
1.925000E-8	-0.000591
1.930000E-8	-0.000841
1.935000E-8	-0.000656
1.940000E-8	-0.000394
1.945000E-8	0.000150
1.950000E-8	0.000719
1.955000E-8	0.001553
1.960000E-8	0.002122
1.965000E-8	0.002853
1.970000E-8	0.003450
1.975000E-8	0.003944
1.980000E-8	0.004081
1.985000E-8	0.004063
1.990000E-8	0.003853
1.995000E-8	0.003463
2.000000E-8	0.002813
2.005000E-8	0.002119
2.010000E-8	0.001359
2.015000E-8	0.000763
2.020000E-8	0.000131
2.025000E-8	-0.000234
2.030000E-8	-0.000287
2.035000E-8	-0.000263
2.040000E-8	3.437500E-5
2.045000E-8	0.000444
2.050000E-8	0.001163
2.055000E-8	0.001919
2.060000E-8	0.002631
2.065000E-8	0.003309
2.070000E-8	0.003816
2.075000E-8	0.004138
2.080000E-8	0.004144
2.085000E-8	0.003991
2.090000E-8	0.003559
2.095000E-8	0.003022
2.100000E-8	0.002288
2.105000E-8	0.001553
2.110000E-8	0.000831
2.115000E-8	0.000197
2.120000E-8	-0.000350
2.125000E-8	-0.000572
2.130000E-8	-0.000669
2.135000E-8	-0.000328
2.140000E-8	0.000000
2.145000E-8	0.000713
2.150000E-8	0.001378
2.155000E-8	0.002225
2.160000E-8	0.002919
2.165000E-8	0.003512
2.170000E-8	0.004041
2.175000E-8	0.004325
2.180000E-8	0.004231
2.185000E-8	0.003922
2.190000E-8	0.003366
2.195000E-8	0.002744
2.200000E-8	0.001913
2.205000E-8	0.001163
2.210000E-8	0.000497
2.215000E-8	-1.562500E-5
2.220000E-8	-0.000466
2.225000E-8	-0.000569
2.230000E-8	-0.000412
2.235000E-8	-6.875000E-5
2.240000E-8	0.000603
2.245000E-8	0.001297
2.250000E-8	0.002222
2.255000E-8	0.003053
2.260000E-8	0.003856
2.265000E-8	0.004334
2.270000E-8	0.004544
2.275000E-8	0.004675
2.280000E-8	0.004469
2.285000E-8	0.004153
2.290000E-8	0.003441
2.295000E-8	0.002584
2.300000E-8	0.001672
2.305000E-8	0.000800
2.310000E-8	0.000000
2.315000E-8	-0.000459
2.320000E-8	-0.000747
2.325000E-8	-0.000716
2.330000E-8	-0.000291
2.335000E-8	0.000322
2.340000E-8	0.001038
2.345000E-8	0.001838
2.350000E-8	0.002634
2.355000E-8	0.003472
2.360000E-8	0.004075
2.365000E-8	0.004444
2.370000E-8	0.004516
2.375000E-8	0.004278
2.380000E-8	0.003938
2.385000E-8	0.003275
2.390000E-8	0.002512
2.395000E-8	0.001678
2.400000E-8	0.000981
2.405000E-8	0.000416
2.410000E-8	-0.000128
2.415000E-8	-0.000234
2.420000E-8	-0.000369
2.425000E-8	-5.937500E-5
2.430000E-8	0.000397
2.435000E-8	0.001106
2.440000E-8	0.001713
2.445000E-8	0.002372
2.450000E-8	0.003063
2.455000E-8	0.003563
2.460000E-8	0.003841
2.465000E-8	0.004134
2.470000E-8	0.004009
2.475000E-8	0.003816
2.480000E-8	0.003291
2.485000E-8	0.002766
2.490000E-8	0.002100
2.495000E-8	0.001522
2.500000E-8	0.000925
2.505000E-8	0.000400
2.510000E-8	7.812500E-5
2.515000E-8	7.500000E-5
2.520000E-8	0.000237
2.525000E-8	0.000625
2.530000E-8	0.001094
2.535000E-8	0.001722
2.540000E-8	0.002491
2.545000E-8	0.003131
2.550000E-8	0.003641
2.555000E-8	0.003994
2.560000E-8	0.004347
2.565000E-8	0.004456
2.570000E-8	0.004313
2.575000E-8	0.003897
2.580000E-8	0.003253
2.585000E-8	0.002528
2.590000E-8	0.001834
2.595000E-8	0.001231
2.600000E-8	0.000638
2.605000E-8	0.000213
2.610000E-8	-6.562500E-5
2.615000E-8	3.437500E-5
2.620000E-8	0.000266
2.625000E-8	0.000725
2.630000E-8	0.001409
2.635000E-8	0.001950
2.640000E-8	0.002550
2.645000E-8	0.003119
2.650000E-8	0.003534
2.655000E-8	0.003809
2.660000E-8	0.003784
2.665000E-8	0.003806
2.670000E-8	0.003491
2.675000E-8	0.003081
2.680000E-8	0.002534
2.685000E-8	0.002091
2.690000E-8	0.001456
2.695000E-8	0.000950
2.700000E-8	0.000384
2.705000E-8	0.000131
2.710000E-8	-3.750000E-5
2.715000E-8	-1.250000E-5
2.720000E-8	0.000166
2.725000E-8	0.000506
2.730000E-8	0.001147
2.735000E-8	0.001616
2.740000E-8	0.002237
2.745000E-8	0.002813
2.750000E-8	0.003191
2.755000E-8	0.003584
2.760000E-8	0.003784
2.765000E-8	0.003684
2.770000E-8	0.003359
2.775000E-8	0.002997
2.780000E-8	0.002359
2.785000E-8	0.001803
2.790000E-8	0.001350
2.795000E-8	0.000831
2.800000E-8	0.000484
2.805000E-8	0.000334
2.810000E-8	0.000334
2.815000E-8	0.000519
2.820000E-8	0.000728
2.825000E-8	0.001341
2.830000E-8	0.001806
2.835000E-8	0.002331
2.840000E-8	0.002966
2.845000E-8	0.003431
2.850000E-8	0.003678
2.855000E-8	0.003944
2.860000E-8	0.003875
2.865000E-8	0.003772
2.870000E-8	0.003281
2.875000E-8	0.002897
2.880000E-8	0.002366
2.885000E-8	0.001759
2.890000E-8	0.001128
2.895000E-8	0.000822
2.900000E-8	0.000412
2.905000E-8	0.000163
2.910000E-8	5.937500E-5
2.915000E-8	0.000347
2.920000E-8	0.000678
2.925000E-8	0.001222
2.930000E-8	0.001728
2.935000E-8	0.002484
2.940000E-8	0.002984
2.945000E-8	0.003456
2.950000E-8	0.003716
2.955000E-8	0.003866
2.960000E-8	0.003781
2.965000E-8	0.003681
2.970000E-8	0.003041
2.975000E-8	0.002719
2.980000E-8	0.002178
2.985000E-8	0.001644
2.990000E-8	0.001044
2.995000E-8	0.000800
3.000000E-8	0.000537
3.005000E-8	0.000550
3.010000E-8	0.000666
3.015000E-8	0.000953
3.020000E-8	0.001431
3.025000E-8	0.001894
3.030000E-8	0.002441
3.035000E-8	0.003047
3.040000E-8	0.003512
3.045000E-8	0.003900
3.050000E-8	0.004066
3.055000E-8	0.004169
3.060000E-8	0.003962
3.065000E-8	0.003553
3.070000E-8	0.003028
3.075000E-8	0.002512
3.080000E-8	0.001753
3.085000E-8	0.001153
3.090000E-8	0.000666
3.095000E-8	0.000344
3.100000E-8	0.000184
3.105000E-8	0.000284
3.110000E-8	0.000547
3.115000E-8	0.000972
3.120000E-8	0.001600
3.125000E-8	0.002259
3.130000E-8	0.002953
3.135000E-8	0.003541
3.140000E-8	0.003884
3.145000E-8	0.004119
3.150000E-8	0.004128
3.155000E-8	0.003984
3.160000E-8	0.003638
3.165000E-8	0.003159
3.170000E-8	0.002662
3.175000E-8	0.002166
3.180000E-8	0.001397
3.185000E-8	0.000906
3.190000E-8	0.000553
3.195000E-8	0.000425
3.200000E-8	0.000475
3.205000E-8	0.000691
3.210000E-8	0.000984
3.215000E-8	0.001481
3.220000E-8	0.002000
3.225000E-8	0.002684
3.230000E-8	0.003025
3.235000E-8	0.003516
3.240000E-8	0.003809
3.245000E-8	0.003950
3.250000E-8	0.003844
3.255000E-8	0.003741
3.260000E-8	0.003322
3.265000E-8	0.002909
3.270000E-8	0.002253
3.275000E-8	0.001731
3.280000E-8	0.001200
3.285000E-8	0.000850
3.290000E-8	0.000575
3.295000E-8	0.000663
3.300000E-8	0.000528
3.305000E-8	0.000756
3.310000E-8	0.001019
3.315000E-8	0.001597
3.320000E-8	0.001972
3.325000E-8	0.002516
3.330000E-8	0.002900
3.335000E-8	0.003334
3.340000E-8	0.003431
3.345000E-8	0.003453
3.350000E-8	0.003341
3.355000E-8	0.003128
3.360000E-8	0.002809
3.365000E-8	0.002347
3.370000E-8	0.001947
3.375000E-8	0.001484
3.380000E-8	0.001088
3.385000E-8	0.000878
3.390000E-8	0.000719
3.395000E-8	0.000819
3.400000E-8	0.000816
3.405000E-8	0.001150
3.410000E-8	0.001603
3.415000E-8	0.002103
3.420000E-8	0.002525
3.425000E-8	0.002838
3.430000E-8	0.003222
3.435000E-8	0.003572
3.440000E-8	0.003675
3.445000E-8	0.003713
3.450000E-8	0.003541
3.455000E-8	0.003219
3.460000E-8	0.002737
3.465000E-8	0.002300
3.470000E-8	0.001822
3.475000E-8	0.001284
3.480000E-8	0.000925
3.485000E-8	0.000622
3.490000E-8	0.000522
3.495000E-8	0.000513
3.500000E-8	0.000650
3.505000E-8	0.001072
3.510000E-8	0.001503
3.515000E-8	0.001966
3.520000E-8	0.002381
3.525000E-8	0.002863
3.530000E-8	0.003275
3.535000E-8	0.003606
3.540000E-8	0.003613
3.545000E-8	0.003634
3.550000E-8	0.003456
3.555000E-8	0.002981
3.560000E-8	0.002503
3.565000E-8	0.002131
3.570000E-8	0.001697
3.575000E-8	0.001322
3.580000E-8	0.000978
3.585000E-8	0.000734
3.590000E-8	0.000638
3.595000E-8	0.000906
3.600000E-8	0.001147
3.605000E-8	0.001519
3.610000E-8	0.001916
3.615000E-8	0.002309
3.620000E-8	0.002613
3.625000E-8	0.003053
3.630000E-8	0.003356
3.635000E-8	0.003541
3.640000E-8	0.003516
3.645000E-8	0.003406
3.650000E-8	0.003141
3.655000E-8	0.002725
3.660000E-8	0.002166
3.665000E-8	0.001878
3.670000E-8	0.001519
3.675000E-8	0.001191
3.680000E-8	0.000931
3.685000E-8	0.000716
3.690000E-8	0.000691
3.695000E-8	0.000881
3.700000E-8	0.001112
3.705000E-8	0.001594
3.710000E-8	0.002038
3.715000E-8	0.002456
3.720000E-8	0.002881
3.725000E-8	0.003291
3.730000E-8	0.003616
3.735000E-8	0.003722
3.740000E-8	0.003666
3.745000E-8	0.003506
3.750000E-8	0.002997
3.755000E-8	0.002566
3.760000E-8	0.002041
3.765000E-8	0.001525
3.770000E-8	0.001081
3.775000E-8	0.000891
3.780000E-8	0.000669
3.785000E-8	0.000769
3.790000E-8	0.000819
3.795000E-8	0.001056
3.800000E-8	0.001409
3.805000E-8	0.001850
3.810000E-8	0.002444
3.815000E-8	0.002900
3.820000E-8	0.003228
3.825000E-8	0.003459
3.830000E-8	0.003550
3.835000E-8	0.003431
3.840000E-8	0.003213
3.845000E-8	0.002900
3.850000E-8	0.002578
3.855000E-8	0.002225
3.860000E-8	0.001778
3.865000E-8	0.001322
3.870000E-8	0.001009
3.875000E-8	0.000894
3.880000E-8	0.000703
3.885000E-8	0.000675
3.890000E-8	0.000878
3.895000E-8	0.001178
3.900000E-8	0.001544
3.905000E-8	0.002000
3.910000E-8	0.002406
3.915000E-8	0.002822
3.920000E-8	0.003103
3.925000E-8	0.003278
3.930000E-8	0.003369
3.935000E-8	0.003284
3.940000E-8	0.003113
3.945000E-8	0.002997
3.950000E-8	0.002603
3.955000E-8	0.002203
3.960000E-8	0.001844
3.965000E-8	0.001588
3.970000E-8	0.001266
3.975000E-8	0.001213
3.980000E-8	0.001078
3.985000E-8	0.001147
3.990000E-8	0.001231
3.995000E-8	0.001631
4.000000E-8	0.002006
4.005000E-8	0.002491
4.010000E-8	0.002822
4.015000E-8	0.003259
4.020000E-8	0.003484
4.025000E-8	0.003741
4.030000E-8	0.003544
4.035000E-8	0.003509
4.040000E-8	0.003225
4.045000E-8	0.002784
4.050000E-8	0.002416
4.055000E-8	0.002012
4.060000E-8	0.001647
4.065000E-8	0.001569
4.070000E-8	0.001259
4.075000E-8	0.001153
4.080000E-8	0.001131
4.085000E-8	0.001303
4.090000E-8	0.001581
4.095000E-8	0.001984
4.100000E-8	0.002366
4.105000E-8	0.002606
4.110000E-8	0.002881
4.115000E-8	0.003209
4.120000E-8	0.003300
4.125000E-8	0.003438
4.130000E-8	0.003328
4.135000E-8	0.003134
4.140000E-8	0.002841
4.145000E-8	0.002456
4.150000E-8	0.002106
4.155000E-8	0.001734
4.160000E-8	0.001341
4.165000E-8	0.001241
4.170000E-8	0.001091
4.175000E-8	0.001097
4.180000E-8	0.001147
4.185000E-8	0.001328
4.190000E-8	0.001641
4.195000E-8	0.001919
4.200000E-8	0.002250
4.205000E-8	0.002613
4.210000E-8	0.002897
4.215000E-8	0.003172
4.220000E-8	0.003294
4.225000E-8	0.003288
4.230000E-8	0.003125
4.235000E-8	0.002913
4.240000E-8	0.002700
4.245000E-8	0.002334
4.250000E-8	0.001828
4.255000E-8	0.001559
4.260000E-8	0.001153
4.265000E-8	0.000984
4.270000E-8	0.000803
4.275000E-8	0.000878
4.280000E-8	0.000997
4.285000E-8	0.001297
4.290000E-8	0.001559
4.295000E-8	0.001941
4.300000E-8	0.002250
4.305000E-8	0.002691
4.310000E-8	0.002878
4.315000E-8	0.003150
4.320000E-8	0.003219
4.325000E-8	0.003128
4.330000E-8	0.003016
4.335000E-8	0.002744
4.340000E-8	0.002409
4.345000E-8	0.001997
4.350000E-8	0.001616
4.355000E-8	0.001350
4.360000E-8	0.001059
4.365000E-8	0.000997
4.370000E-8	0.000878
4.375000E-8	0.001031
4.380000E-8	0.001119
4.385000E-8	0.001531
4.390000E-8	0.001794
4.395000E-8	0.002150
4.400000E-8	0.002584
4.405000E-8	0.002928
4.410000E-8	0.003203
4.415000E-8	0.003366
4.420000E-8	0.003381
4.425000E-8	0.003278
4.430000E-8	0.003063
4.435000E-8	0.002822
4.440000E-8	0.002416
4.445000E-8	0.002059
4.450000E-8	0.001728
4.455000E-8	0.001391
4.460000E-8	0.001156
4.465000E-8	0.001181
4.470000E-8	0.001122
4.475000E-8	0.001200
4.480000E-8	0.001534
4.485000E-8	0.001859
4.490000E-8	0.002162
4.495000E-8	0.002500
4.500000E-8	0.002791
4.505000E-8	0.003084
4.510000E-8	0.003063
4.515000E-8	0.003059
4.520000E-8	0.002859
4.525000E-8	0.002594
4.530000E-8	0.002300
4.535000E-8	0.002059
4.540000E-8	0.001781
4.545000E-8	0.001631
4.550000E-8	0.001419
4.555000E-8	0.001228
4.560000E-8	0.001103
4.565000E-8	0.001163
4.570000E-8	0.001253
4.575000E-8	0.001531
4.580000E-8	0.001725
4.585000E-8	0.002031
4.590000E-8	0.002353
4.595000E-8	0.002653
4.600000E-8	0.002784
4.605000E-8	0.002953
4.610000E-8	0.003075
4.615000E-8	0.003069
4.620000E-8	0.002956
4.625000E-8	0.002841
4.630000E-8	0.002541
4.635000E-8	0.002347
4.640000E-8	0.001956
4.645000E-8	0.001747
4.650000E-8	0.001463
4.655000E-8	0.001238
4.660000E-8	0.001122
4.665000E-8	0.001091
4.670000E-8	0.001322
4.675000E-8	0.001531
4.680000E-8	0.001741
4.685000E-8	0.002091
4.690000E-8	0.002397
4.695000E-8	0.002731
4.700000E-8	0.002922
4.705000E-8	0.003000
4.710000E-8	0.003169
4.715000E-8	0.003231
4.720000E-8	0.003106
4.725000E-8	0.002819
4.730000E-8	0.002525
4.735000E-8	0.002241
4.740000E-8	0.001822
4.745000E-8	0.001538
4.750000E-8	0.001288
4.755000E-8	0.001131
4.760000E-8	0.001084
4.765000E-8	0.001181
4.770000E-8	0.001284
4.775000E-8	0.001500
4.780000E-8	0.001875
4.785000E-8	0.002119
4.790000E-8	0.002375
4.795000E-8	0.002619
4.800000E-8	0.002631
4.805000E-8	0.002713
4.810000E-8	0.002616
4.815000E-8	0.002434
4.820000E-8	0.002066
4.825000E-8	0.001972
4.830000E-8	0.001716
4.835000E-8	0.001456
4.840000E-8	0.001153
4.845000E-8	0.001078
4.850000E-8	0.001025
4.855000E-8	0.001091
4.860000E-8	0.001241
4.865000E-8	0.001441
4.870000E-8	0.001600
4.875000E-8	0.001903
4.880000E-8	0.002087
4.885000E-8	0.002350
4.890000E-8	0.002591
4.895000E-8	0.002822
4.900000E-8	0.002763
4.905000E-8	0.002856
4.910000E-8	0.002675
4.915000E-8	0.002597
4.920000E-8	0.002347
4.925000E-8	0.002019
4.930000E-8	0.001869
4.935000E-8	0.001653
4.940000E-8	0.001437
4.945000E-8	0.001416
4.950000E-8	0.001281
4.955000E-8	0.001362
4.960000E-8	0.001497
4.965000E-8	0.001706
4.970000E-8	0.001975
4.975000E-8	0.002322
4.980000E-8	0.002528
4.985000E-8	0.002744
4.990000E-8	0.002963
4.995000E-8	0.003181
5.000000E-8	0.003253
5.005000E-8	0.003281
5.010000E-8	0.003081
5.015000E-8	0.003022
5.020000E-8	0.002700
5.025000E-8	0.002372
5.030000E-8	0.002166
5.035000E-8	0.001900
5.040000E-8	0.001638
5.045000E-8	0.001538
5.050000E-8	0.001428
5.055000E-8	0.001575
5.060000E-8	0.001603
5.065000E-8	0.001697
5.070000E-8	0.001897
5.075000E-8	0.002081
5.080000E-8	0.002288
5.085000E-8	0.002584
5.090000E-8	0.002653
5.095000E-8	0.002788
5.100000E-8	0.002681
5.105000E-8	0.002644
5.110000E-8	0.002538
5.115000E-8	0.002350
5.120000E-8	0.002162
5.125000E-8	0.001866
5.130000E-8	0.001675
5.135000E-8	0.001463
5.140000E-8	0.001306
5.145000E-8	0.001194
5.150000E-8	0.001116
5.155000E-8	0.001219
5.160000E-8	0.001434
5.165000E-8	0.001713
5.170000E-8	0.002031
5.175000E-8	0.002316
5.180000E-8	0.002538
5.185000E-8	0.002662
5.190000E-8	0.002791
5.195000E-8	0.002916
5.200000E-8	0.002772
5.205000E-8	0.002734
5.210000E-8	0.002678
5.215000E-8	0.002556
5.220000E-8	0.002263
5.225000E-8	0.002138
5.230000E-8	0.001834
5.235000E-8	0.001725
5.240000E-8	0.001550
5.245000E-8	0.001550
5.250000E-8	0.001619
5.255000E-8	0.001750
5.260000E-8	0.001794
5.265000E-8	0.002003
5.270000E-8	0.002250
5.275000E-8	0.002509
5.280000E-8	0.002700
5.285000E-8	0.002784
5.290000E-8	0.002850
5.295000E-8	0.002888
5.300000E-8	0.002866
5.305000E-8	0.002728
5.310000E-8	0.002484
5.315000E-8	0.002331
5.320000E-8	0.002128
5.325000E-8	0.001825
5.330000E-8	0.001513
5.335000E-8	0.001403
5.340000E-8	0.001341
5.345000E-8	0.001400
5.350000E-8	0.001447
5.355000E-8	0.001666
5.360000E-8	0.001788
5.365000E-8	0.002016
5.370000E-8	0.002219
5.375000E-8	0.002419
5.380000E-8	0.002569
5.385000E-8	0.002816
5.390000E-8	0.002806
5.395000E-8	0.002781
5.400000E-8	0.002669
5.405000E-8	0.002488
5.410000E-8	0.002247
5.415000E-8	0.002025
5.420000E-8	0.001819
5.425000E-8	0.001759
5.430000E-8	0.001725
5.435000E-8	0.001644
5.440000E-8	0.001528
5.445000E-8	0.001516
5.450000E-8	0.001606
5.455000E-8	0.001794
5.460000E-8	0.001750
5.465000E-8	0.001928
5.470000E-8	0.002150
5.475000E-8	0.002341
5.480000E-8	0.002453
5.485000E-8	0.002519
5.490000E-8	0.002525
5.495000E-8	0.002406
5.500000E-8	0.002381
5.505000E-8	0.002166
5.510000E-8	0.001997
5.515000E-8	0.001866
5.520000E-8	0.001631
5.525000E-8	0.001522
5.530000E-8	0.001334
5.535000E-8	0.001347
5.540000E-8	0.001225
5.545000E-8	0.001259
5.550000E-8	0.001309
5.555000E-8	0.001628
5.560000E-8	0.001803
5.565000E-8	0.002006
5.570000E-8	0.002284
5.575000E-8	0.002609
5.580000E-8	0.002666
5.585000E-8	0.002897
5.590000E-8	0.002872
5.595000E-8	0.002850
5.600000E-8	0.002716
5.605000E-8	0.002503
5.610000E-8	0.002209
5.615000E-8	0.002025
5.620000E-8	0.001738
5.625000E-8	0.001400
5.630000E-8	0.001172
5.635000E-8	0.001153
5.640000E-8	0.001191
5.645000E-8	0.001359
5.650000E-8	0.001544
5.655000E-8	0.001803
5.660000E-8	0.002016
5.665000E-8	0.002437
5.670000E-8	0.002575
5.675000E-8	0.002731
5.680000E-8	0.002841
5.685000E-8	0.002934
5.690000E-8	0.002806
5.695000E-8	0.002744
5.700000E-8	0.002528
5.705000E-8	0.002213
5.710000E-8	0.001997
5.715000E-8	0.001781
5.720000E-8	0.001503
5.725000E-8	0.001419
5.730000E-8	0.001444
5.735000E-8	0.001519
5.740000E-8	0.001563
5.745000E-8	0.001684
5.750000E-8	0.001875
5.755000E-8	0.001975
5.760000E-8	0.002263
5.765000E-8	0.002341
5.770000E-8	0.002444
5.775000E-8	0.002653
5.780000E-8	0.002641
5.785000E-8	0.002603
5.790000E-8	0.002569
5.795000E-8	0.002394
5.800000E-8	0.002113
5.805000E-8	0.002059
5.810000E-8	0.001766
5.815000E-8	0.001622
5.820000E-8	0.001475
5.825000E-8	0.001344
5.830000E-8	0.001403
5.835000E-8	0.001416
5.840000E-8	0.001525
5.845000E-8	0.001772
5.850000E-8	0.001906
5.855000E-8	0.002050
5.860000E-8	0.002203
5.865000E-8	0.002237
5.870000E-8	0.002294
5.875000E-8	0.002338
5.880000E-8	0.002378
5.885000E-8	0.002394
5.890000E-8	0.002256
5.895000E-8	0.002250
5.900000E-8	0.001950
5.905000E-8	0.001775
5.910000E-8	0.001738
5.915000E-8	0.001584
5.920000E-8	0.001522
5.925000E-8	0.001491
5.930000E-8	0.001513
5.935000E-8	0.001731
5.940000E-8	0.001822
5.945000E-8	0.001963
5.950000E-8	0.002116
5.955000E-8	0.002359
5.960000E-8	0.002503
5.965000E-8	0.002778
5.970000E-8	0.002813
5.975000E-8	0.002884
5.980000E-8	0.002788
5.985000E-8	0.002719
5.990000E-8	0.002475
5.995000E-8	0.002331
6.000000E-8	0.002162
6.005000E-8	0.001928
6.010000E-8	0.001675
6.015000E-8	0.001572
6.020000E-8	0.001538
6.025000E-8	0.001500
6.030000E-8	0.001594
6.035000E-8	0.001741
6.040000E-8	0.001994
6.045000E-8	0.002191
6.050000E-8	0.002350
6.055000E-8	0.002587
6.060000E-8	0.002647
6.065000E-8	0.002731
6.070000E-8	0.002753
6.075000E-8	0.002850
6.080000E-8	0.002725
6.085000E-8	0.002694
6.090000E-8	0.002538
6.095000E-8	0.002469
6.100000E-8	0.002356
6.105000E-8	0.002184
6.110000E-8	0.001925
6.115000E-8	0.001869
6.120000E-8	0.001713
6.125000E-8	0.001741
6.130000E-8	0.001700
6.135000E-8	0.001803
6.140000E-8	0.001756
6.145000E-8	0.002012
6.150000E-8	0.002000
6.155000E-8	0.002178
6.160000E-8	0.002225
6.165000E-8	0.002491
6.170000E-8	0.002550
6.175000E-8	0.002550
6.180000E-8	0.002463
6.185000E-8	0.002300
6.190000E-8	0.002141
6.195000E-8	0.001988
6.200000E-8	0.001719
6.205000E-8	0.001681
6.210000E-8	0.001391
6.215000E-8	0.001466
6.220000E-8	0.001466
6.225000E-8	0.001566
6.230000E-8	0.001588
6.235000E-8	0.001828
6.240000E-8	0.002091
6.245000E-8	0.002288
6.250000E-8	0.002444
6.255000E-8	0.002578
6.260000E-8	0.002572
6.265000E-8	0.002706
6.270000E-8	0.002656
6.275000E-8	0.002634
6.280000E-8	0.002525
6.285000E-8	0.002434
6.290000E-8	0.002141
6.295000E-8	0.001931
6.300000E-8	0.001772
6.305000E-8	0.001663
6.310000E-8	0.001553
6.315000E-8	0.001463
6.320000E-8	0.001509
6.325000E-8	0.001581
6.330000E-8	0.001731
6.335000E-8	0.001894
6.340000E-8	0.001950
6.345000E-8	0.002178
6.350000E-8	0.002331
6.355000E-8	0.002547
6.360000E-8	0.002550
6.365000E-8	0.002437
6.370000E-8	0.002497
6.375000E-8	0.002463
6.380000E-8	0.002291
6.385000E-8	0.002134
6.390000E-8	0.002047
6.395000E-8	0.002000
6.400000E-8	0.002031
6.405000E-8	0.002009
6.410000E-8	0.001900
6.415000E-8	0.001988
6.420000E-8	0.001978
6.425000E-8	0.002166
6.430000E-8	0.002188
6.435000E-8	0.002309
6.440000E-8	0.002269
6.445000E-8	0.002381
6.450000E-8	0.002519
6.455000E-8	0.002622
6.460000E-8	0.002509
6.465000E-8	0.002488
6.470000E-8	0.002338
6.475000E-8	0.002353
6.480000E-8	0.002269
6.485000E-8	0.002044
6.490000E-8	0.001897
6.495000E-8	0.001959
6.500000E-8	0.001784
6.505000E-8	0.001756
6.510000E-8	0.001687
6.515000E-8	0.001722
6.520000E-8	0.001706
6.525000E-8	0.001816
6.530000E-8	0.001869
6.535000E-8	0.002019
6.540000E-8	0.002103
6.545000E-8	0.002234
6.550000E-8	0.002250
6.555000E-8	0.002300
6.560000E-8	0.002372
6.565000E-8	0.002575
6.570000E-8	0.002413
6.575000E-8	0.002384
6.580000E-8	0.002222
6.585000E-8	0.002087
6.590000E-8	0.001847
6.595000E-8	0.001922
6.600000E-8	0.001784
6.605000E-8	0.001697
6.610000E-8	0.001681
6.615000E-8	0.001747
6.620000E-8	0.001753
6.625000E-8	0.001872
6.630000E-8	0.002072
6.635000E-8	0.002159
6.640000E-8	0.002206
6.645000E-8	0.002425
6.650000E-8	0.002391
6.655000E-8	0.002500
6.660000E-8	0.002469
6.665000E-8	0.002581
6.670000E-8	0.002484
6.675000E-8	0.002413
6.680000E-8	0.002272
6.685000E-8	0.002097
6.690000E-8	0.001928
6.695000E-8	0.001847
6.700000E-8	0.001834
6.705000E-8	0.001747
6.710000E-8	0.001756
6.715000E-8	0.001669
6.720000E-8	0.001769
6.725000E-8	0.001841
6.730000E-8	0.001806
6.735000E-8	0.002141
6.740000E-8	0.002091
6.745000E-8	0.002144
6.750000E-8	0.002166
6.755000E-8	0.002166
6.760000E-8	0.002038
6.765000E-8	0.002066
6.770000E-8	0.001909
6.775000E-8	0.001850
6.780000E-8	0.001703
6.785000E-8	0.001647
6.790000E-8	0.001687
6.795000E-8	0.001619
6.800000E-8	0.001559
6.805000E-8	0.001634
6.810000E-8	0.001669
6.815000E-8	0.001744
6.820000E-8	0.001753
6.825000E-8	0.001934
6.830000E-8	0.002041
6.835000E-8	0.002209
6.840000E-8	0.002256
6.845000E-8	0.002397
6.850000E-8	0.002444
6.855000E-8	0.002428
6.860000E-8	0.002425
6.865000E-8	0.002484
6.870000E-8	0.002331
6.875000E-8	0.002350
6.880000E-8	0.002138
6.885000E-8	0.002025
6.890000E-8	0.001963
6.895000E-8	0.001891
6.900000E-8	0.001738
6.905000E-8	0.001788
6.910000E-8	0.001716
6.915000E-8	0.001869
6.920000E-8	0.001959
6.925000E-8	0.002162
6.930000E-8	0.002241
6.935000E-8	0.002447
6.940000E-8	0.002422
6.945000E-8	0.002584
6.950000E-8	0.002472
6.955000E-8	0.002516
6.960000E-8	0.002444
6.965000E-8	0.002378
6.970000E-8	0.002184
6.975000E-8	0.001994
6.980000E-8	0.001803
6.985000E-8	0.001744
6.990000E-8	0.001647
6.995000E-8	0.001616
7.000000E-8	0.001584
7.005000E-8	0.001625
7.010000E-8	0.001706
7.015000E-8	0.001931
7.020000E-8	0.001950
7.025000E-8	0.002141
7.030000E-8	0.002197
7.035000E-8	0.002384
7.040000E-8	0.002559
7.045000E-8	0.002616
7.050000E-8	0.002634
7.055000E-8	0.002741
7.060000E-8	0.002587
7.065000E-8	0.002591
7.070000E-8	0.002456
7.075000E-8	0.002444
7.080000E-8	0.002244
7.085000E-8	0.002234
7.090000E-8	0.002116
7.095000E-8	0.002044
7.100000E-8	0.001859
7.105000E-8	0.001913
7.110000E-8	0.001941
7.115000E-8	0.002009
7.120000E-8	0.002109
7.125000E-8	0.002084
7.130000E-8	0.002009
7.135000E-8	0.002153
7.140000E-8	0.002253
7.145000E-8	0.002316
7.150000E-8	0.002428
7.155000E-8	0.002425
7.160000E-8	0.002375
7.165000E-8	0.002456
7.170000E-8	0.002322
7.175000E-8	0.002278
7.180000E-8	0.002216
7.185000E-8	0.002097
7.190000E-8	0.001931
7.195000E-8	0.001950
7.200000E-8	0.001872
7.205000E-8	0.002038
7.210000E-8	0.002119
7.215000E-8	0.002094
7.220000E-8	0.002128
7.225000E-8	0.002338
7.230000E-8	0.002419
7.235000E-8	0.002466
7.240000E-8	0.002300
7.245000E-8	0.002259
7.250000E-8	0.002275
7.255000E-8	0.002237
7.260000E-8	0.002075
7.265000E-8	0.002056
7.270000E-8	0.002028
7.275000E-8	0.002044
7.280000E-8	0.002066
7.285000E-8	0.002162
7.290000E-8	0.002016
7.295000E-8	0.002025
7.300000E-8	0.002003
7.305000E-8	0.001937
7.310000E-8	0.001909
7.315000E-8	0.002031
7.320000E-8	0.001994
7.325000E-8	0.002075
7.330000E-8	0.002134
7.335000E-8	0.002184
7.340000E-8	0.002094
7.345000E-8	0.002275
7.350000E-8	0.002353
7.355000E-8	0.002319
7.360000E-8	0.002162
7.365000E-8	0.002016
7.370000E-8	0.001947
7.375000E-8	0.001925
7.380000E-8	0.001775
7.385000E-8	0.001716
7.390000E-8	0.001628
7.395000E-8	0.001741
7.400000E-8	0.001747
7.405000E-8	0.001856
7.410000E-8	0.001956
7.415000E-8	0.002128
7.420000E-8	0.002244
7.425000E-8	0.002306
7.430000E-8	0.002434
7.435000E-8	0.002581
7.440000E-8	0.002569
7.445000E-8	0.002587
7.450000E-8	0.002581
7.455000E-8	0.002500
7.460000E-8	0.002434
7.465000E-8	0.002309
7.470000E-8	0.002322
7.475000E-8	0.002194
7.480000E-8	0.002184
7.485000E-8	0.002188
7.490000E-8	0.002181
7.495000E-8	0.002259
7.500000E-8	0.002222
7.505000E-8	0.002228
7.510000E-8	0.002144
7.515000E-8	0.002381
7.520000E-8	0.002334
7.525000E-8	0.002237
7.530000E-8	0.002350
7.535000E-8	0.002347
7.540000E-8	0.002313
7.545000E-8	0.002306
7.550000E-8	0.002116
7.555000E-8	0.002128
7.560000E-8	0.002078
7.565000E-8	0.002166
7.570000E-8	0.002166
7.575000E-8	0.002012
7.580000E-8	0.001966
7.585000E-8	0.002069
7.590000E-8	0.001994
7.595000E-8	0.002050
7.600000E-8	0.002100
7.605000E-8	0.002138
7.610000E-8	0.002094
7.615000E-8	0.002256
7.620000E-8	0.002253
7.625000E-8	0.002309
7.630000E-8	0.002263
7.635000E-8	0.002247
7.640000E-8	0.002153
7.645000E-8	0.002066
7.650000E-8	0.002116
7.655000E-8	0.002012
7.660000E-8	0.001969
7.665000E-8	0.002000
7.670000E-8	0.001881
7.675000E-8	0.002034
7.680000E-8	0.002066
7.685000E-8	0.001991
7.690000E-8	0.002053
7.695000E-8	0.002200
7.700000E-8	0.002197
7.705000E-8	0.002219
7.710000E-8	0.002269
7.715000E-8	0.002294
7.720000E-8	0.002341
7.725000E-8	0.002413
7.730000E-8	0.002428
7.735000E-8	0.002450
7.740000E-8	0.002388
7.745000E-8	0.002325
7.750000E-8	0.002384
7.755000E-8	0.002350
7.760000E-8	0.002138
7.765000E-8	0.002147
7.770000E-8	0.002078
7.775000E-8	0.002122
7.780000E-8	0.002081
7.785000E-8	0.002031
7.790000E-8	0.001984
7.795000E-8	0.002150
7.800000E-8	0.002128
7.805000E-8	0.002241
7.810000E-8	0.002128
7.815000E-8	0.002131
7.820000E-8	0.002216
7.825000E-8	0.002297
7.830000E-8	0.002297
7.835000E-8	0.002394
7.840000E-8	0.002278
7.845000E-8	0.002269
7.850000E-8	0.002316
7.855000E-8	0.002288
7.860000E-8	0.002338
7.865000E-8	0.002184
7.870000E-8	0.002153
7.875000E-8	0.002259
7.880000E-8	0.002147
7.885000E-8	0.002122
7.890000E-8	0.002122
7.895000E-8	0.002094
7.900000E-8	0.002050
7.905000E-8	0.002150
7.910000E-8	0.002147
7.915000E-8	0.002237
7.920000E-8	0.002184
7.925000E-8	0.002253
7.930000E-8	0.002303
7.935000E-8	0.002375
7.940000E-8	0.002259
7.945000E-8	0.002072
7.950000E-8	0.001994
7.955000E-8	0.001875
7.960000E-8	0.001741
7.965000E-8	0.001666
7.970000E-8	0.001687
7.975000E-8	0.001706
7.980000E-8	0.001769
7.985000E-8	0.001950
7.990000E-8	0.002016
7.995000E-8	0.002125
8.000000E-8	0.002297
8.005000E-8	0.002338
8.010000E-8	0.002419
8.015000E-8	0.002512
8.020000E-8	0.002519
8.025000E-8	0.002437
8.030000E-8	0.002378
8.035000E-8	0.002338
8.040000E-8	0.002306
8.045000E-8	0.002162
8.050000E-8	0.002072
8.055000E-8	0.001906
8.060000E-8	0.001847
8.065000E-8	0.001869
8.070000E-8	0.001900
8.075000E-8	0.001800
8.080000E-8	0.001913
8.085000E-8	0.002022
8.090000E-8	0.002116
8.095000E-8	0.002228
8.100000E-8	0.002297
8.105000E-8	0.002394
8.110000E-8	0.002338
8.115000E-8	0.002297
8.120000E-8	0.002228
8.125000E-8	0.002266
8.130000E-8	0.002266
8.135000E-8	0.002147
8.140000E-8	0.002075
8.145000E-8	0.002034
8.150000E-8	0.001963
8.155000E-8	0.001947
8.160000E-8	0.001913
8.165000E-8	0.001966
8.170000E-8	0.001834
8.175000E-8	0.001953
8.180000E-8	0.001950
8.185000E-8	0.002131
8.190000E-8	0.002169
8.195000E-8	0.002191
8.200000E-8	0.002297
8.205000E-8	0.002219
8.210000E-8	0.002253
8.215000E-8	0.002225
8.220000E-8	0.002169
8.225000E-8	0.002091
8.230000E-8	0.001944
8.235000E-8	0.001853
8.240000E-8	0.001788
8.245000E-8	0.001828
8.250000E-8	0.001869
8.255000E-8	0.001825
8.260000E-8	0.001788
8.265000E-8	0.001791
8.270000E-8	0.001784
8.275000E-8	0.001806
8.280000E-8	0.001894
8.285000E-8	0.002019
8.290000E-8	0.001900
8.295000E-8	0.002103
8.300000E-8	0.002169
8.305000E-8	0.002319
8.310000E-8	0.002413
8.315000E-8	0.002497
8.320000E-8	0.002469
8.325000E-8	0.002437
8.330000E-8	0.002319
8.335000E-8	0.002237
8.340000E-8	0.002084
8.345000E-8	0.002053
8.350000E-8	0.002009
8.355000E-8	0.001947
8.360000E-8	0.001788
8.365000E-8	0.001856
8.370000E-8	0.001953
8.375000E-8	0.002056
8.380000E-8	0.002181
8.385000E-8	0.002359
8.390000E-8	0.002603
8.395000E-8	0.002803
8.400000E-8	0.002794
8.405000E-8	0.002897
8.410000E-8	0.002888
8.415000E-8	0.002828
8.420000E-8	0.002572
8.425000E-8	0.002425
8.430000E-8	0.002194
8.435000E-8	0.001919
8.440000E-8	0.001759
8.445000E-8	0.001759
8.450000E-8	0.001750
8.455000E-8	0.001719
8.460000E-8	0.001800
8.465000E-8	0.001969
8.470000E-8	0.002006
8.475000E-8	0.002247
8.480000E-8	0.002291
8.485000E-8	0.002391
8.490000E-8	0.002397
8.495000E-8	0.002331
8.500000E-8	0.002303
8.505000E-8	0.002375
8.510000E-8	0.002253
8.515000E-8	0.002269
8.520000E-8	0.002241
8.525000E-8	0.002188
8.530000E-8	0.002128
8.535000E-8	0.002131
8.540000E-8	0.001969
8.545000E-8	0.001991
8.550000E-8	0.001959
8.555000E-8	0.001984
8.560000E-8	0.001872
8.565000E-8	0.001903
8.570000E-8	0.001872
8.575000E-8	0.002066
8.580000E-8	0.002009
8.585000E-8	0.002072
8.590000E-8	0.002153
8.595000E-8	0.002341
8.600000E-8	0.002456
8.605000E-8	0.002506
8.610000E-8	0.002322
8.615000E-8	0.002369
8.620000E-8	0.002388
8.625000E-8	0.002384
8.630000E-8	0.002253
8.635000E-8	0.002209
8.640000E-8	0.002175
8.645000E-8	0.002237
8.650000E-8	0.002256
8.655000E-8	0.002288
8.660000E-8	0.002250
8.665000E-8	0.002234
8.670000E-8	0.002247
8.675000E-8	0.002447
8.680000E-8	0.002503
8.685000E-8	0.002431
8.690000E-8	0.002428
8.695000E-8	0.002528
8.700000E-8	0.002453
8.705000E-8	0.002397
8.710000E-8	0.002356
8.715000E-8	0.002366
8.720000E-8	0.002250
8.725000E-8	0.002241
8.730000E-8	0.002200
8.735000E-8	0.002231
8.740000E-8	0.002131
8.745000E-8	0.002153
8.750000E-8	0.002122
8.755000E-8	0.002297
8.760000E-8	0.002228
8.765000E-8	0.002203
8.770000E-8	0.002184
8.775000E-8	0.002278
8.780000E-8	0.002228
8.785000E-8	0.002194
8.790000E-8	0.002175
8.795000E-8	0.002134
8.800000E-8	0.002188
8.805000E-8	0.002147
8.810000E-8	0.002100
8.815000E-8	0.002084
8.820000E-8	0.001934
8.825000E-8	0.001944
8.830000E-8	0.001859
8.835000E-8	0.001972
8.840000E-8	0.002097
8.845000E-8	0.002069
8.850000E-8	0.002041
8.855000E-8	0.002019
8.860000E-8	0.002084
8.865000E-8	0.002162
8.870000E-8	0.002116
8.875000E-8	0.002103
8.880000E-8	0.002206
8.885000E-8	0.002259
8.890000E-8	0.002184
8.895000E-8	0.002294
8.900000E-8	0.002384
8.905000E-8	0.002378
8.910000E-8	0.002344
8.915000E-8	0.002469
8.920000E-8	0.002506
8.925000E-8	0.002609
8.930000E-8	0.002603
8.935000E-8	0.002500
8.940000E-8	0.002509
8.945000E-8	0.002478
8.950000E-8	0.002328
8.955000E-8	0.002344
8.960000E-8	0.002259
8.965000E-8	0.002244
8.970000E-8	0.002237
8.975000E-8	0.002181
8.980000E-8	0.002072
8.985000E-8	0.002100
8.990000E-8	0.002113
8.995000E-8	0.002181
9.000000E-8	0.002162
9.005000E-8	0.002138
9.010000E-8	0.002109
9.015000E-8	0.002103
9.020000E-8	0.002041
9.025000E-8	0.002125
9.030000E-8	0.001859
9.035000E-8	0.001941
9.040000E-8	0.001853
9.045000E-8	0.001788
9.050000E-8	0.001769
9.055000E-8	0.001931
9.060000E-8	0.001894
9.065000E-8	0.002091
9.070000E-8	0.002194
9.075000E-8	0.002213
9.080000E-8	0.002344
9.085000E-8	0.002512
9.090000E-8	0.002553
9.095000E-8	0.002584
9.100000E-8	0.002522
9.105000E-8	0.002566
9.110000E-8	0.002309
9.115000E-8	0.002109
9.120000E-8	0.002194
9.125000E-8	0.002213
9.130000E-8	0.002103
9.135000E-8	0.002106
9.140000E-8	0.001988
9.145000E-8	0.002038
9.150000E-8	0.002044
9.155000E-8	0.002087
9.160000E-8	0.002109
9.165000E-8	0.002141
9.170000E-8	0.002191
9.175000E-8	0.002300
9.180000E-8	0.002394
9.185000E-8	0.002413
9.190000E-8	0.002522
9.195000E-8	0.002500
9.200000E-8	0.002506
9.205000E-8	0.002488
9.210000E-8	0.002416
9.215000E-8	0.002344
9.220000E-8	0.002128
9.225000E-8	0.001991
9.230000E-8	0.001869
9.235000E-8	0.001931
9.240000E-8	0.001959
9.245000E-8	0.002050
9.250000E-8	0.002156
9.255000E-8	0.002338
9.260000E-8	0.002419
9.265000E-8	0.002491
9.270000E-8	0.002550
9.275000E-8	0.002569
9.280000E-8	0.002572
9.285000E-8	0.002553
9.290000E-8	0.002497
9.295000E-8	0.002447
9.300000E-8	0.002300
9.305000E-8	0.002206
9.310000E-8	0.002119
9.315000E-8	0.002069
9.320000E-8	0.001909
9.325000E-8	0.001834
9.330000E-8	0.001728
9.335000E-8	0.001703
9.340000E-8	0.001706
9.345000E-8	0.001750
9.350000E-8	0.001703
9.355000E-8	0.001766
9.360000E-8	0.001794
9.365000E-8	0.001928
9.370000E-8	0.002025
9.375000E-8	0.002138
9.380000E-8	0.002188
9.385000E-8	0.002206
9.390000E-8	0.002297
9.395000E-8	0.002272
9.400000E-8	0.002225
9.405000E-8	0.002094
9.410000E-8	0.002016
9.415000E-8	0.002081
9.420000E-8	0.002022
9.425000E-8	0.002044
9.430000E-8	0.002047
9.435000E-8	0.001978
9.440000E-8	0.002022
9.445000E-8	0.002016
9.450000E-8	0.002012
9.455000E-8	0.002012
9.460000E-8	0.002063
9.465000E-8	0.002275
9.470000E-8	0.002222
9.475000E-8	0.002225
9.480000E-8	0.002237
9.485000E-8	0.002394
9.490000E-8	0.002344
9.495000E-8	0.002334
9.500000E-8	0.002381
9.505000E-8	0.002400
9.510000E-8	0.002381
9.515000E-8	0.002425
9.520000E-8	0.002344
9.525000E-8	0.002228
9.530000E-8	0.002175
9.535000E-8	0.002203
9.540000E-8	0.002075
9.545000E-8	0.002034
9.550000E-8	0.002050
9.555000E-8	0.002103
9.560000E-8	0.002072
9.565000E-8	0.002138
9.570000E-8	0.002241
9.575000E-8	0.002353
9.580000E-8	0.002316
9.585000E-8	0.002306
9.590000E-8	0.002188
9.595000E-8	0.002209
9.600000E-8	0.002134
9.605000E-8	0.002156
9.610000E-8	0.002012
9.615000E-8	0.002009
9.620000E-8	0.001863
9.625000E-8	0.001853
9.630000E-8	0.001816
9.635000E-8	0.001963
9.640000E-8	0.002025
9.645000E-8	0.002122
9.650000E-8	0.002194
9.655000E-8	0.002269
9.660000E-8	0.002294
9.665000E-8	0.002344
9.670000E-8	0.002291
9.675000E-8	0.002347
9.680000E-8	0.002375
9.685000E-8	0.002316
9.690000E-8	0.002216
9.695000E-8	0.002272
9.700000E-8	0.002203
9.705000E-8	0.002188
9.710000E-8	0.002209
9.715000E-8	0.002194
9.720000E-8	0.002103
9.725000E-8	0.002116
9.730000E-8	0.002094
9.735000E-8	0.002144
9.740000E-8	0.002091
9.745000E-8	0.002153
9.750000E-8	0.002225
9.755000E-8	0.002116
9.760000E-8	0.002000
9.765000E-8	0.001991
9.770000E-8	0.002041
9.775000E-8	0.002009
9.780000E-8	0.002063
9.785000E-8	0.002084
9.790000E-8	0.002228
9.795000E-8	0.002228
9.800000E-8	0.002247
9.805000E-8	0.002325
9.810000E-8	0.002231
9.815000E-8	0.002328
9.820000E-8	0.002275
9.825000E-8	0.002203
9.830000E-8	0.002178
9.835000E-8	0.002278
9.840000E-8	0.002222
9.845000E-8	0.002206
9.850000E-8	0.002228
9.855000E-8	0.002284
9.860000E-8	0.002309
9.865000E-8	0.002263
9.870000E-8	0.002338
9.875000E-8	0.002437
9.880000E-8	0.002494
9.885000E-8	0.002381
9.890000E-8	0.002356
9.895000E-8	0.002319
9.900000E-8	0.002213
9.905000E-8	0.002222
9.910000E-8	0.002200
9.915000E-8	0.002231
9.920000E-8	0.002153
9.925000E-8	0.002150
9.930000E-8	0.002028
9.935000E-8	0.002038
9.940000E-8	0.001900
9.945000E-8	0.002025
9.950000E-8	0.002066
9.955000E-8	0.002162
9.960000E-8	0.002138
9.965000E-8	0.002253
9.970000E-8	0.002247
9.975000E-8	0.002347
9.980000E-8	0.002394
9.985000E-8	0.002519
9.990000E-8	0.002394
9.995000E-8	0.002319
