LabVIEW Measurement	
Writer_Version	2
Reader_Version	2
Separator	Tab
Decimal_Separator	.
Multi_Headings	No
X_Columns	Multi
Time_Pref	Relative
Operator	TG lab
Date	2015/03/06
Time	19:21:31.5585417747497558594
***End_of_Header***	
	
Channels	1	
Samples	2000	
Date	1903/12/31	
Time	19:00:00	
X_Dimension	Time	
X0	0.0000000000000000E+0	
Delta_X	5.000000E-11	
***End_of_Header***		
X_Value	Untitled	Comment
0.000000	0.002000
5.000000E-11	0.002031
1.000000E-10	0.001872
1.500000E-10	0.001872
2.000000E-10	0.001853
2.500000E-10	0.001781
3.000000E-10	0.001763
3.500000E-10	0.001828
4.000000E-10	0.001791
4.500000E-10	0.001844
5.000000E-10	0.001913
5.500000E-10	0.002006
6.000000E-10	0.002038
6.500000E-10	0.002103
7.000000E-10	0.002138
7.500000E-10	0.002113
8.000000E-10	0.002084
8.500000E-10	0.002063
9.000000E-10	0.001978
9.500000E-10	0.001928
1.000000E-9	0.001869
1.050000E-9	0.001694
1.100000E-9	0.001528
1.150000E-9	0.001628
1.200000E-9	0.001513
1.250000E-9	0.001566
1.300000E-9	0.001566
1.350000E-9	0.001706
1.400000E-9	0.001750
1.450000E-9	0.001750
1.500000E-9	0.001875
1.550000E-9	0.001994
1.600000E-9	0.001913
1.650000E-9	0.001991
1.700000E-9	0.001969
1.750000E-9	0.001934
1.800000E-9	0.001872
1.850000E-9	0.001819
1.900000E-9	0.001778
1.950000E-9	0.001866
2.000000E-9	0.001803
2.050000E-9	0.001816
2.100000E-9	0.001759
2.150000E-9	0.001847
2.200000E-9	0.001781
2.250000E-9	0.001897
2.300000E-9	0.001994
2.350000E-9	0.002075
2.400000E-9	0.002113
2.450000E-9	0.002263
2.500000E-9	0.002216
2.550000E-9	0.002203
2.600000E-9	0.002063
2.650000E-9	0.001931
2.700000E-9	0.001756
2.750000E-9	0.001666
2.800000E-9	0.001622
2.850000E-9	0.001647
2.900000E-9	0.001503
2.950000E-9	0.001469
3.000000E-9	0.001441
3.050000E-9	0.001550
3.100000E-9	0.001669
3.150000E-9	0.001713
3.200000E-9	0.001672
3.250000E-9	0.001634
3.300000E-9	0.001684
3.350000E-9	0.001713
3.400000E-9	0.001656
3.450000E-9	0.001691
3.500000E-9	0.001584
3.550000E-9	0.001612
3.600000E-9	0.001478
3.650000E-9	0.001416
3.700000E-9	0.001344
3.750000E-9	0.001388
3.800000E-9	0.001453
3.850000E-9	0.001378
3.900000E-9	0.001281
3.950000E-9	0.001319
4.000000E-9	0.001334
4.050000E-9	0.001359
4.100000E-9	0.001416
4.150000E-9	0.001416
4.200000E-9	0.001334
4.250000E-9	0.001316
4.300000E-9	0.001234
4.350000E-9	0.001288
4.400000E-9	0.001222
4.450000E-9	0.001088
4.500000E-9	0.000881
4.550000E-9	0.000747
4.600000E-9	0.000647
4.650000E-9	0.000434
4.700000E-9	5.937500E-5
4.750000E-9	-0.000200
4.800000E-9	-0.000566
4.850000E-9	-0.001247
4.900000E-9	-0.002147
4.950000E-9	-0.003234
5.000000E-9	-0.004641
5.050000E-9	-0.006250
5.100000E-9	-0.008128
5.150000E-9	-0.010025
5.200000E-9	-0.012038
5.250000E-9	-0.014013
5.300000E-9	-0.016103
5.350000E-9	-0.017997
5.400000E-9	-0.019744
5.450000E-9	-0.021241
5.500000E-9	-0.022466
5.550000E-9	-0.023231
5.600000E-9	-0.023772
5.650000E-9	-0.023881
5.700000E-9	-0.023775
5.750000E-9	-0.023297
5.800000E-9	-0.022597
5.850000E-9	-0.021597
5.900000E-9	-0.020497
5.950000E-9	-0.019312
6.000000E-9	-0.017866
6.050000E-9	-0.016506
6.100000E-9	-0.015253
6.150000E-9	-0.014153
6.200000E-9	-0.013241
6.250000E-9	-0.012638
6.300000E-9	-0.012241
6.350000E-9	-0.012097
6.400000E-9	-0.012244
6.450000E-9	-0.012572
6.500000E-9	-0.013134
6.550000E-9	-0.013603
6.600000E-9	-0.014191
6.650000E-9	-0.014756
6.700000E-9	-0.015375
6.750000E-9	-0.015738
6.800000E-9	-0.016053
6.850000E-9	-0.016319
6.900000E-9	-0.016269
6.950000E-9	-0.016028
7.000000E-9	-0.015769
7.050000E-9	-0.015150
7.100000E-9	-0.014213
7.150000E-9	-0.013288
7.200000E-9	-0.012291
7.250000E-9	-0.011116
7.300000E-9	-0.010047
7.350000E-9	-0.008894
7.400000E-9	-0.007872
7.450000E-9	-0.007066
7.500000E-9	-0.006391
7.550000E-9	-0.005869
7.600000E-9	-0.005769
7.650000E-9	-0.005778
7.700000E-9	-0.006000
7.750000E-9	-0.006400
7.800000E-9	-0.006953
7.850000E-9	-0.007528
7.900000E-9	-0.008175
7.950000E-9	-0.008738
8.000000E-9	-0.009309
8.050000E-9	-0.009822
8.100000E-9	-0.010162
8.150000E-9	-0.010244
8.200000E-9	-0.010313
8.250000E-9	-0.010109
8.300000E-9	-0.009781
8.350000E-9	-0.009141
8.400000E-9	-0.008272
8.450000E-9	-0.007409
8.500000E-9	-0.006347
8.550000E-9	-0.005222
8.600000E-9	-0.004347
8.650000E-9	-0.003413
8.700000E-9	-0.002719
8.750000E-9	-0.002031
8.800000E-9	-0.001678
8.850000E-9	-0.001603
8.900000E-9	-0.001656
8.950000E-9	-0.001913
9.000000E-9	-0.002388
9.050000E-9	-0.003041
9.100000E-9	-0.003666
9.150000E-9	-0.004378
9.200000E-9	-0.005213
9.250000E-9	-0.005941
9.300000E-9	-0.006494
9.350000E-9	-0.007038
9.400000E-9	-0.007381
9.450000E-9	-0.007466
9.500000E-9	-0.007425
9.550000E-9	-0.007059
9.600000E-9	-0.006628
9.650000E-9	-0.005872
9.700000E-9	-0.005116
9.750000E-9	-0.004022
9.800000E-9	-0.003091
9.850000E-9	-0.002241
9.900000E-9	-0.001403
9.950000E-9	-0.000663
1.000000E-8	-0.000259
1.005000E-8	9.687500E-5
1.010000E-8	0.000350
1.015000E-8	0.000347
1.020000E-8	0.000175
1.025000E-8	-0.000209
1.030000E-8	-0.000678
1.035000E-8	-0.001309
1.040000E-8	-0.002053
1.045000E-8	-0.002797
1.050000E-8	-0.003566
1.055000E-8	-0.004188
1.060000E-8	-0.004763
1.065000E-8	-0.005206
1.070000E-8	-0.005475
1.075000E-8	-0.005459
1.080000E-8	-0.005244
1.085000E-8	-0.004741
1.090000E-8	-0.004166
1.095000E-8	-0.003378
1.100000E-8	-0.002491
1.105000E-8	-0.001553
1.110000E-8	-0.000619
1.115000E-8	0.000259
1.120000E-8	0.000916
1.125000E-8	0.001466
1.130000E-8	0.001822
1.135000E-8	0.002162
1.140000E-8	0.002128
1.145000E-8	0.001934
1.150000E-8	0.001475
1.155000E-8	0.000863
1.160000E-8	-3.125000E-5
1.165000E-8	-0.000863
1.170000E-8	-0.001772
1.175000E-8	-0.002553
1.180000E-8	-0.003222
1.185000E-8	-0.003888
1.190000E-8	-0.004191
1.195000E-8	-0.004197
1.200000E-8	-0.004175
1.205000E-8	-0.003900
1.210000E-8	-0.003441
1.215000E-8	-0.002797
1.220000E-8	-0.001991
1.225000E-8	-0.001213
1.230000E-8	-0.000331
1.235000E-8	0.000550
1.240000E-8	0.001316
1.245000E-8	0.001956
1.250000E-8	0.002450
1.255000E-8	0.002825
1.260000E-8	0.002900
1.265000E-8	0.002759
1.270000E-8	0.002472
1.275000E-8	0.002041
1.280000E-8	0.001519
1.285000E-8	0.000725
1.290000E-8	-9.375000E-6
1.295000E-8	-0.000731
1.300000E-8	-0.001381
1.305000E-8	-0.002172
1.310000E-8	-0.002694
1.315000E-8	-0.003025
1.320000E-8	-0.003334
1.325000E-8	-0.003353
1.330000E-8	-0.003169
1.335000E-8	-0.002756
1.340000E-8	-0.002178
1.345000E-8	-0.001434
1.350000E-8	-0.000719
1.355000E-8	0.000122
1.360000E-8	0.000747
1.365000E-8	0.001591
1.370000E-8	0.002325
1.375000E-8	0.002959
1.380000E-8	0.003384
1.385000E-8	0.003656
1.390000E-8	0.003616
1.395000E-8	0.003525
1.400000E-8	0.003094
1.405000E-8	0.002525
1.410000E-8	0.001766
1.415000E-8	0.001006
1.420000E-8	0.000284
1.425000E-8	-0.000550
1.430000E-8	-0.001331
1.435000E-8	-0.001875
1.440000E-8	-0.002244
1.445000E-8	-0.002584
1.450000E-8	-0.002681
1.455000E-8	-0.002434
1.460000E-8	-0.002075
1.465000E-8	-0.001609
1.470000E-8	-0.000981
1.475000E-8	-0.000131
1.480000E-8	0.000634
1.485000E-8	0.001425
1.490000E-8	0.002237
1.495000E-8	0.002819
1.500000E-8	0.003328
1.505000E-8	0.003763
1.510000E-8	0.003800
1.515000E-8	0.003681
1.520000E-8	0.003541
1.525000E-8	0.003122
1.530000E-8	0.002528
1.535000E-8	0.001884
1.540000E-8	0.001281
1.545000E-8	0.000459
1.550000E-8	-0.000225
1.555000E-8	-0.000859
1.560000E-8	-0.001453
1.565000E-8	-0.001866
1.570000E-8	-0.002159
1.575000E-8	-0.002200
1.580000E-8	-0.002109
1.585000E-8	-0.001734
1.590000E-8	-0.001341
1.595000E-8	-0.000444
1.600000E-8	0.000213
1.605000E-8	0.001063
1.610000E-8	0.001937
1.615000E-8	0.002828
1.620000E-8	0.003453
1.625000E-8	0.004003
1.630000E-8	0.004250
1.635000E-8	0.004434
1.640000E-8	0.004278
1.645000E-8	0.004022
1.650000E-8	0.003628
1.655000E-8	0.003075
1.660000E-8	0.002322
1.665000E-8	0.001634
1.670000E-8	0.000997
1.675000E-8	0.000378
1.680000E-8	-0.000206
1.685000E-8	-0.000753
1.690000E-8	-0.001169
1.695000E-8	-0.001316
1.700000E-8	-0.001516
1.705000E-8	-0.001372
1.710000E-8	-0.001059
1.715000E-8	-0.000553
1.720000E-8	-1.562500E-5
1.725000E-8	0.000700
1.730000E-8	0.001353
1.735000E-8	0.002138
1.740000E-8	0.002875
1.745000E-8	0.003394
1.750000E-8	0.003828
1.755000E-8	0.004109
1.760000E-8	0.004128
1.765000E-8	0.004131
1.770000E-8	0.003913
1.775000E-8	0.003628
1.780000E-8	0.003191
1.785000E-8	0.002550
1.790000E-8	0.001838
1.795000E-8	0.001244
1.800000E-8	0.000678
1.805000E-8	-2.500000E-5
1.810000E-8	-0.000594
1.815000E-8	-0.000769
1.820000E-8	-0.001163
1.825000E-8	-0.001197
1.830000E-8	-0.001213
1.835000E-8	-0.000900
1.840000E-8	-0.000534
1.845000E-8	-4.375000E-5
1.850000E-8	0.000559
1.855000E-8	0.001203
1.860000E-8	0.001984
1.865000E-8	0.002734
1.870000E-8	0.003378
1.875000E-8	0.003956
1.880000E-8	0.004384
1.885000E-8	0.004731
1.890000E-8	0.004891
1.895000E-8	0.004659
1.900000E-8	0.004359
1.905000E-8	0.003891
1.910000E-8	0.003281
1.915000E-8	0.002666
1.920000E-8	0.001828
1.925000E-8	0.001203
1.930000E-8	0.000500
1.935000E-8	3.437500E-5
1.940000E-8	-0.000537
1.945000E-8	-0.000831
1.950000E-8	-0.000947
1.955000E-8	-0.000747
1.960000E-8	-0.000616
1.965000E-8	-0.000153
1.970000E-8	0.000363
1.975000E-8	0.001000
1.980000E-8	0.001559
1.985000E-8	0.002087
1.990000E-8	0.002766
1.995000E-8	0.003256
2.000000E-8	0.003594
2.005000E-8	0.003894
2.010000E-8	0.004016
2.015000E-8	0.004103
2.020000E-8	0.003972
2.025000E-8	0.003788
2.030000E-8	0.003341
2.035000E-8	0.002847
2.040000E-8	0.002284
2.045000E-8	0.001781
2.050000E-8	0.001256
2.055000E-8	0.000794
2.060000E-8	0.000188
2.065000E-8	-0.000241
2.070000E-8	-0.000625
2.075000E-8	-0.000609
2.080000E-8	-0.000763
2.085000E-8	-0.000519
2.090000E-8	-0.000263
2.095000E-8	0.000234
2.100000E-8	0.000728
2.105000E-8	0.001297
2.110000E-8	0.002000
2.115000E-8	0.002688
2.120000E-8	0.003253
2.125000E-8	0.003803
2.130000E-8	0.004188
2.135000E-8	0.004544
2.140000E-8	0.004478
2.145000E-8	0.004309
2.150000E-8	0.003972
2.155000E-8	0.003503
2.160000E-8	0.002953
2.165000E-8	0.002388
2.170000E-8	0.001681
2.175000E-8	0.001166
2.180000E-8	0.000553
2.185000E-8	0.000116
2.190000E-8	-0.000194
2.195000E-8	-0.000400
2.200000E-8	-0.000603
2.205000E-8	-0.000491
2.210000E-8	-0.000231
2.215000E-8	0.000125
2.220000E-8	0.000531
2.225000E-8	0.001178
2.230000E-8	0.001841
2.235000E-8	0.002463
2.240000E-8	0.002894
2.245000E-8	0.003475
2.250000E-8	0.003872
2.255000E-8	0.004122
2.260000E-8	0.004069
2.265000E-8	0.004134
2.270000E-8	0.004131
2.275000E-8	0.003822
2.280000E-8	0.003366
2.285000E-8	0.002956
2.290000E-8	0.002519
2.295000E-8	0.001925
2.300000E-8	0.001375
2.305000E-8	0.000844
2.310000E-8	0.000463
2.315000E-8	0.000194
2.320000E-8	-3.437500E-5
2.325000E-8	-0.000256
2.330000E-8	-0.000284
2.335000E-8	-0.000244
2.340000E-8	8.750000E-5
2.345000E-8	0.000453
2.350000E-8	0.000994
2.355000E-8	0.001650
2.360000E-8	0.002103
2.365000E-8	0.002597
2.370000E-8	0.003009
2.375000E-8	0.003556
2.380000E-8	0.003816
2.385000E-8	0.003994
2.390000E-8	0.004028
2.395000E-8	0.004147
2.400000E-8	0.003809
2.405000E-8	0.003478
2.410000E-8	0.003075
2.415000E-8	0.002716
2.420000E-8	0.002166
2.425000E-8	0.001638
2.430000E-8	0.001094
2.435000E-8	0.000672
2.440000E-8	0.000197
2.445000E-8	-0.000169
2.450000E-8	-0.000388
2.455000E-8	-0.000287
2.460000E-8	-0.000247
2.465000E-8	2.187500E-5
2.470000E-8	0.000278
2.475000E-8	0.000891
2.480000E-8	0.001397
2.485000E-8	0.001947
2.490000E-8	0.002413
2.495000E-8	0.003050
2.500000E-8	0.003281
2.505000E-8	0.003709
2.510000E-8	0.003919
2.515000E-8	0.004100
2.520000E-8	0.004100
2.525000E-8	0.003909
2.530000E-8	0.003600
2.535000E-8	0.003222
2.540000E-8	0.002744
2.545000E-8	0.002281
2.550000E-8	0.001709
2.555000E-8	0.001181
2.560000E-8	0.000703
2.565000E-8	0.000259
2.570000E-8	-0.000166
2.575000E-8	-0.000328
2.580000E-8	-0.000278
2.585000E-8	-5.000000E-5
2.590000E-8	0.000128
2.595000E-8	0.000625
2.600000E-8	0.001119
2.605000E-8	0.001606
2.610000E-8	0.002162
2.615000E-8	0.002750
2.620000E-8	0.003294
2.625000E-8	0.003706
2.630000E-8	0.003863
2.635000E-8	0.004131
2.640000E-8	0.004116
2.645000E-8	0.004022
2.650000E-8	0.003788
2.655000E-8	0.003572
2.660000E-8	0.003194
2.665000E-8	0.002788
2.670000E-8	0.002441
2.675000E-8	0.001956
2.680000E-8	0.001381
2.685000E-8	0.001031
2.690000E-8	0.000691
2.695000E-8	0.000366
2.700000E-8	6.250000E-5
2.705000E-8	0.000103
2.710000E-8	0.000231
2.715000E-8	0.000350
2.720000E-8	0.000713
2.725000E-8	0.001266
2.730000E-8	0.001622
2.735000E-8	0.002231
2.740000E-8	0.002647
2.745000E-8	0.003144
2.750000E-8	0.003631
2.755000E-8	0.003884
2.760000E-8	0.003950
2.765000E-8	0.004000
2.770000E-8	0.003953
2.775000E-8	0.003819
2.780000E-8	0.003528
2.785000E-8	0.003263
2.790000E-8	0.002863
2.795000E-8	0.002500
2.800000E-8	0.002106
2.805000E-8	0.001606
2.810000E-8	0.001191
2.815000E-8	0.000866
2.820000E-8	0.000631
2.825000E-8	0.000525
2.830000E-8	0.000300
2.835000E-8	0.000453
2.840000E-8	0.000509
2.845000E-8	0.000747
2.850000E-8	0.001203
2.855000E-8	0.001628
2.860000E-8	0.002128
2.865000E-8	0.002731
2.870000E-8	0.003034
2.875000E-8	0.003378
2.880000E-8	0.003731
2.885000E-8	0.003878
2.890000E-8	0.003853
2.895000E-8	0.003853
2.900000E-8	0.003600
2.905000E-8	0.003528
2.910000E-8	0.003181
2.915000E-8	0.002922
2.920000E-8	0.002500
2.925000E-8	0.001978
2.930000E-8	0.001659
2.935000E-8	0.001294
2.940000E-8	0.000888
2.945000E-8	0.000653
2.950000E-8	0.000366
2.955000E-8	0.000356
2.960000E-8	0.000275
2.965000E-8	0.000422
2.970000E-8	0.000622
2.975000E-8	0.000984
2.980000E-8	0.001325
2.985000E-8	0.001884
2.990000E-8	0.002344
2.995000E-8	0.002869
3.000000E-8	0.003188
3.005000E-8	0.003603
3.010000E-8	0.003819
3.015000E-8	0.003978
3.020000E-8	0.003978
3.025000E-8	0.003881
3.030000E-8	0.003569
3.035000E-8	0.003216
3.040000E-8	0.002834
3.045000E-8	0.002403
3.050000E-8	0.002025
3.055000E-8	0.001672
3.060000E-8	0.001250
3.065000E-8	0.000897
3.070000E-8	0.000534
3.075000E-8	0.000359
3.080000E-8	0.000219
3.085000E-8	0.000253
3.090000E-8	0.000369
3.095000E-8	0.000737
3.100000E-8	0.000928
3.105000E-8	0.001403
3.110000E-8	0.001891
3.115000E-8	0.002434
3.120000E-8	0.002794
3.125000E-8	0.003203
3.130000E-8	0.003569
3.135000E-8	0.003856
3.140000E-8	0.003978
3.145000E-8	0.004122
3.150000E-8	0.003828
3.155000E-8	0.003600
3.160000E-8	0.003350
3.165000E-8	0.002888
3.170000E-8	0.002550
3.175000E-8	0.002094
3.180000E-8	0.001734
3.185000E-8	0.001331
3.190000E-8	0.001038
3.195000E-8	0.000891
3.200000E-8	0.000719
3.205000E-8	0.000456
3.210000E-8	0.000419
3.215000E-8	0.000619
3.220000E-8	0.000666
3.225000E-8	0.000953
3.230000E-8	0.001256
3.235000E-8	0.001669
3.240000E-8	0.002050
3.245000E-8	0.002456
3.250000E-8	0.002903
3.255000E-8	0.003341
3.260000E-8	0.003547
3.265000E-8	0.003769
3.270000E-8	0.003844
3.275000E-8	0.003847
3.280000E-8	0.003669
3.285000E-8	0.003409
3.290000E-8	0.003106
3.295000E-8	0.002703
3.300000E-8	0.002181
3.305000E-8	0.001788
3.310000E-8	0.001272
3.315000E-8	0.001012
3.320000E-8	0.000625
3.325000E-8	0.000469
3.330000E-8	0.000384
3.335000E-8	0.000519
3.340000E-8	0.000559
3.345000E-8	0.000772
3.350000E-8	0.000909
3.355000E-8	0.001309
3.360000E-8	0.001703
3.365000E-8	0.001966
3.370000E-8	0.002200
3.375000E-8	0.002603
3.380000E-8	0.002784
3.385000E-8	0.002959
3.390000E-8	0.003122
3.395000E-8	0.003125
3.400000E-8	0.003119
3.405000E-8	0.002991
3.410000E-8	0.002963
3.415000E-8	0.002737
3.420000E-8	0.002363
3.425000E-8	0.002109
3.430000E-8	0.001888
3.435000E-8	0.001672
3.440000E-8	0.001347
3.445000E-8	0.001019
3.450000E-8	0.000809
3.455000E-8	0.000769
3.460000E-8	0.000541
3.465000E-8	0.000537
3.470000E-8	0.000588
3.475000E-8	0.000853
3.480000E-8	0.001031
3.485000E-8	0.001388
3.490000E-8	0.001656
3.495000E-8	0.002119
3.500000E-8	0.002528
3.505000E-8	0.002750
3.510000E-8	0.002972
3.515000E-8	0.003222
3.520000E-8	0.003347
3.525000E-8	0.003309
3.530000E-8	0.003184
3.535000E-8	0.003144
3.540000E-8	0.002856
3.545000E-8	0.002713
3.550000E-8	0.002359
3.555000E-8	0.002169
3.560000E-8	0.001806
3.565000E-8	0.001522
3.570000E-8	0.001278
3.575000E-8	0.001094
3.580000E-8	0.000903
3.585000E-8	0.000916
3.590000E-8	0.000891
3.595000E-8	0.000909
3.600000E-8	0.001078
3.605000E-8	0.001375
3.610000E-8	0.001538
3.615000E-8	0.001856
3.620000E-8	0.002122
3.625000E-8	0.002466
3.630000E-8	0.002788
3.635000E-8	0.002966
3.640000E-8	0.003216
3.645000E-8	0.003244
3.650000E-8	0.003275
3.655000E-8	0.003219
3.660000E-8	0.003097
3.665000E-8	0.002978
3.670000E-8	0.002716
3.675000E-8	0.002491
3.680000E-8	0.002188
3.685000E-8	0.001731
3.690000E-8	0.001506
3.695000E-8	0.001209
3.700000E-8	0.001012
3.705000E-8	0.000838
3.710000E-8	0.000753
3.715000E-8	0.000838
3.720000E-8	0.000878
3.725000E-8	0.001116
3.730000E-8	0.001275
3.735000E-8	0.001734
3.740000E-8	0.002125
3.745000E-8	0.002434
3.750000E-8	0.002869
3.755000E-8	0.003219
3.760000E-8	0.003472
3.765000E-8	0.003669
3.770000E-8	0.003628
3.775000E-8	0.003666
3.780000E-8	0.003444
3.785000E-8	0.003366
3.790000E-8	0.003028
3.795000E-8	0.002769
3.800000E-8	0.002384
3.805000E-8	0.002006
3.810000E-8	0.001516
3.815000E-8	0.001300
3.820000E-8	0.001100
3.825000E-8	0.000938
3.830000E-8	0.000694
3.835000E-8	0.000669
3.840000E-8	0.000578
3.845000E-8	0.000628
3.850000E-8	0.000703
3.855000E-8	0.000938
3.860000E-8	0.001147
3.865000E-8	0.001444
3.870000E-8	0.001703
3.875000E-8	0.002081
3.880000E-8	0.002403
3.885000E-8	0.002703
3.890000E-8	0.003041
3.895000E-8	0.003166
3.900000E-8	0.003181
3.905000E-8	0.003263
3.910000E-8	0.003141
3.915000E-8	0.003053
3.920000E-8	0.002816
3.925000E-8	0.002478
3.930000E-8	0.002225
3.935000E-8	0.001891
3.940000E-8	0.001506
3.945000E-8	0.001278
3.950000E-8	0.000975
3.955000E-8	0.000941
3.960000E-8	0.000722
3.965000E-8	0.000775
3.970000E-8	0.000831
3.975000E-8	0.001028
3.980000E-8	0.001225
3.985000E-8	0.001559
3.990000E-8	0.001937
3.995000E-8	0.002297
4.000000E-8	0.002516
4.005000E-8	0.002809
4.010000E-8	0.002934
4.015000E-8	0.003147
4.020000E-8	0.003213
4.025000E-8	0.003338
4.030000E-8	0.003325
4.035000E-8	0.003238
4.040000E-8	0.003031
4.045000E-8	0.002969
4.050000E-8	0.002647
4.055000E-8	0.002409
4.060000E-8	0.001972
4.065000E-8	0.001763
4.070000E-8	0.001425
4.075000E-8	0.001278
4.080000E-8	0.001119
4.085000E-8	0.001078
4.090000E-8	0.001100
4.095000E-8	0.001250
4.100000E-8	0.001338
4.105000E-8	0.001775
4.110000E-8	0.001991
4.115000E-8	0.002384
4.120000E-8	0.002741
4.125000E-8	0.003016
4.130000E-8	0.003141
4.135000E-8	0.003325
4.140000E-8	0.003384
4.145000E-8	0.003497
4.150000E-8	0.003406
4.155000E-8	0.003369
4.160000E-8	0.003094
4.165000E-8	0.002791
4.170000E-8	0.002566
4.175000E-8	0.002316
4.180000E-8	0.002050
4.185000E-8	0.001872
4.190000E-8	0.001678
4.195000E-8	0.001463
4.200000E-8	0.001284
4.205000E-8	0.001206
4.210000E-8	0.001144
4.215000E-8	0.001166
4.220000E-8	0.001178
4.225000E-8	0.001506
4.230000E-8	0.001569
4.235000E-8	0.001850
4.240000E-8	0.001941
4.245000E-8	0.002012
4.250000E-8	0.002347
4.255000E-8	0.002628
4.260000E-8	0.002713
4.265000E-8	0.002778
4.270000E-8	0.002856
4.275000E-8	0.003106
4.280000E-8	0.003063
4.285000E-8	0.003000
4.290000E-8	0.002772
4.295000E-8	0.002769
4.300000E-8	0.002469
4.305000E-8	0.002491
4.310000E-8	0.002234
4.315000E-8	0.002038
4.320000E-8	0.001881
4.325000E-8	0.001625
4.330000E-8	0.001497
4.335000E-8	0.001466
4.340000E-8	0.001284
4.345000E-8	0.001278
4.350000E-8	0.001391
4.355000E-8	0.001594
4.360000E-8	0.001703
4.365000E-8	0.001903
4.370000E-8	0.002100
4.375000E-8	0.002350
4.380000E-8	0.002606
4.385000E-8	0.002778
4.390000E-8	0.002866
4.395000E-8	0.003081
4.400000E-8	0.003025
4.405000E-8	0.003059
4.410000E-8	0.002934
4.415000E-8	0.002909
4.420000E-8	0.002719
4.425000E-8	0.002497
4.430000E-8	0.002291
4.435000E-8	0.002084
4.440000E-8	0.001759
4.445000E-8	0.001525
4.450000E-8	0.001366
4.455000E-8	0.001181
4.460000E-8	0.001047
4.465000E-8	0.001050
4.470000E-8	0.001025
4.475000E-8	0.001194
4.480000E-8	0.001428
4.485000E-8	0.001609
4.490000E-8	0.001913
4.495000E-8	0.002203
4.500000E-8	0.002319
4.505000E-8	0.002628
4.510000E-8	0.002828
4.515000E-8	0.002925
4.520000E-8	0.002938
4.525000E-8	0.003009
4.530000E-8	0.002953
4.535000E-8	0.002850
4.540000E-8	0.002756
4.545000E-8	0.002581
4.550000E-8	0.002338
4.555000E-8	0.002237
4.560000E-8	0.002019
4.565000E-8	0.001769
4.570000E-8	0.001669
4.575000E-8	0.001503
4.580000E-8	0.001331
4.585000E-8	0.001272
4.590000E-8	0.001213
4.595000E-8	0.001359
4.600000E-8	0.001328
4.605000E-8	0.001469
4.610000E-8	0.001556
4.615000E-8	0.001694
4.620000E-8	0.001894
4.625000E-8	0.002159
4.630000E-8	0.002388
4.635000E-8	0.002550
4.640000E-8	0.002700
4.645000E-8	0.002850
4.650000E-8	0.002794
4.655000E-8	0.002947
4.660000E-8	0.002950
4.665000E-8	0.002991
4.670000E-8	0.002709
4.675000E-8	0.002569
4.680000E-8	0.002419
4.685000E-8	0.002094
4.690000E-8	0.001856
4.695000E-8	0.001666
4.700000E-8	0.001556
4.705000E-8	0.001375
4.710000E-8	0.001200
4.715000E-8	0.001191
4.720000E-8	0.001175
4.725000E-8	0.001250
4.730000E-8	0.001381
4.735000E-8	0.001556
4.740000E-8	0.001725
4.745000E-8	0.001834
4.750000E-8	0.002019
4.755000E-8	0.002178
4.760000E-8	0.002272
4.765000E-8	0.002475
4.770000E-8	0.002613
4.775000E-8	0.002703
4.780000E-8	0.002769
4.785000E-8	0.002781
4.790000E-8	0.002750
4.795000E-8	0.002600
4.800000E-8	0.002475
4.805000E-8	0.002266
4.810000E-8	0.002047
4.815000E-8	0.001828
4.820000E-8	0.001522
4.825000E-8	0.001172
4.830000E-8	0.001047
4.835000E-8	0.000941
4.840000E-8	0.000906
4.845000E-8	0.000869
4.850000E-8	0.000906
4.855000E-8	0.001084
4.860000E-8	0.001281
4.865000E-8	0.001459
4.870000E-8	0.001634
4.875000E-8	0.001984
4.880000E-8	0.002106
4.885000E-8	0.002313
4.890000E-8	0.002481
4.895000E-8	0.002641
4.900000E-8	0.002694
4.905000E-8	0.002753
4.910000E-8	0.002800
4.915000E-8	0.002688
4.920000E-8	0.002556
4.925000E-8	0.002434
4.930000E-8	0.002213
4.935000E-8	0.002084
4.940000E-8	0.001922
4.945000E-8	0.001763
4.950000E-8	0.001597
4.955000E-8	0.001491
4.960000E-8	0.001375
4.965000E-8	0.001391
4.970000E-8	0.001325
4.975000E-8	0.001394
4.980000E-8	0.001459
4.985000E-8	0.001522
4.990000E-8	0.001603
4.995000E-8	0.001941
5.000000E-8	0.002050
5.005000E-8	0.002256
5.010000E-8	0.002538
5.015000E-8	0.002641
5.020000E-8	0.002647
5.025000E-8	0.003031
5.030000E-8	0.003028
5.035000E-8	0.003031
5.040000E-8	0.003016
5.045000E-8	0.002919
5.050000E-8	0.002700
5.055000E-8	0.002553
5.060000E-8	0.002466
5.065000E-8	0.002203
5.070000E-8	0.001931
5.075000E-8	0.001784
5.080000E-8	0.001678
5.085000E-8	0.001669
5.090000E-8	0.001588
5.095000E-8	0.001616
5.100000E-8	0.001709
5.105000E-8	0.001838
5.110000E-8	0.001900
5.115000E-8	0.002003
5.120000E-8	0.002109
5.125000E-8	0.002178
5.130000E-8	0.002334
5.135000E-8	0.002472
5.140000E-8	0.002534
5.145000E-8	0.002656
5.150000E-8	0.002691
5.155000E-8	0.002809
5.160000E-8	0.002906
5.165000E-8	0.002769
5.170000E-8	0.002772
5.175000E-8	0.002781
5.180000E-8	0.002578
5.185000E-8	0.002494
5.190000E-8	0.002259
5.195000E-8	0.002200
5.200000E-8	0.001916
5.205000E-8	0.001666
5.210000E-8	0.001416
5.215000E-8	0.001313
5.220000E-8	0.001256
5.225000E-8	0.001209
5.230000E-8	0.001341
5.235000E-8	0.001556
5.240000E-8	0.001641
5.245000E-8	0.001956
5.250000E-8	0.002175
5.255000E-8	0.002528
5.260000E-8	0.002694
5.265000E-8	0.002963
5.270000E-8	0.002997
5.275000E-8	0.003134
5.280000E-8	0.003206
5.285000E-8	0.003156
5.290000E-8	0.003053
5.295000E-8	0.002994
5.300000E-8	0.002781
5.305000E-8	0.002625
5.310000E-8	0.002291
5.315000E-8	0.002231
5.320000E-8	0.001922
5.325000E-8	0.001772
5.330000E-8	0.001706
5.335000E-8	0.001581
5.340000E-8	0.001444
5.345000E-8	0.001397
5.350000E-8	0.001344
5.355000E-8	0.001431
5.360000E-8	0.001484
5.365000E-8	0.001609
5.370000E-8	0.001772
5.375000E-8	0.001988
5.380000E-8	0.002216
5.385000E-8	0.002325
5.390000E-8	0.002494
5.395000E-8	0.002634
5.400000E-8	0.002734
5.405000E-8	0.002813
5.410000E-8	0.002778
5.415000E-8	0.002919
5.420000E-8	0.002809
5.425000E-8	0.002691
5.430000E-8	0.002550
5.435000E-8	0.002488
5.440000E-8	0.002216
5.445000E-8	0.001928
5.450000E-8	0.001794
5.455000E-8	0.001609
5.460000E-8	0.001403
5.465000E-8	0.001350
5.470000E-8	0.001406
5.475000E-8	0.001494
5.480000E-8	0.001578
5.485000E-8	0.001750
5.490000E-8	0.001900
5.495000E-8	0.002247
5.500000E-8	0.002422
5.505000E-8	0.002628
5.510000E-8	0.002825
5.515000E-8	0.003125
5.520000E-8	0.003169
5.525000E-8	0.003231
5.530000E-8	0.003131
5.535000E-8	0.003038
5.540000E-8	0.002884
5.545000E-8	0.002803
5.550000E-8	0.002550
5.555000E-8	0.002416
5.560000E-8	0.002225
5.565000E-8	0.002150
5.570000E-8	0.001972
5.575000E-8	0.001994
5.580000E-8	0.001884
5.585000E-8	0.001859
5.590000E-8	0.001675
5.595000E-8	0.001769
5.600000E-8	0.001716
5.605000E-8	0.001725
5.610000E-8	0.001794
5.615000E-8	0.001900
5.620000E-8	0.002025
5.625000E-8	0.002303
5.630000E-8	0.002331
5.635000E-8	0.002528
5.640000E-8	0.002553
5.645000E-8	0.002706
5.650000E-8	0.002866
5.655000E-8	0.002900
5.660000E-8	0.002953
5.665000E-8	0.002941
5.670000E-8	0.002816
5.675000E-8	0.002816
5.680000E-8	0.002578
5.685000E-8	0.002347
5.690000E-8	0.002144
5.695000E-8	0.001944
5.700000E-8	0.001841
5.705000E-8	0.001669
5.710000E-8	0.001550
5.715000E-8	0.001431
5.720000E-8	0.001331
5.725000E-8	0.001366
5.730000E-8	0.001300
5.735000E-8	0.001397
5.740000E-8	0.001459
5.745000E-8	0.001572
5.750000E-8	0.001809
5.755000E-8	0.002006
5.760000E-8	0.002031
5.765000E-8	0.002228
5.770000E-8	0.002316
5.775000E-8	0.002525
5.780000E-8	0.002669
5.785000E-8	0.002737
5.790000E-8	0.002731
5.795000E-8	0.002794
5.800000E-8	0.002713
5.805000E-8	0.002719
5.810000E-8	0.002534
5.815000E-8	0.002341
5.820000E-8	0.002162
5.825000E-8	0.002022
5.830000E-8	0.001881
5.835000E-8	0.001828
5.840000E-8	0.001616
5.845000E-8	0.001453
5.850000E-8	0.001372
5.855000E-8	0.001403
5.860000E-8	0.001347
5.865000E-8	0.001450
5.870000E-8	0.001619
5.875000E-8	0.001822
5.880000E-8	0.002006
5.885000E-8	0.002206
5.890000E-8	0.002297
5.895000E-8	0.002581
5.900000E-8	0.002728
5.905000E-8	0.002859
5.910000E-8	0.002897
5.915000E-8	0.002919
5.920000E-8	0.002806
5.925000E-8	0.002650
5.930000E-8	0.002366
5.935000E-8	0.002191
5.940000E-8	0.001872
5.945000E-8	0.001794
5.950000E-8	0.001541
5.955000E-8	0.001431
5.960000E-8	0.001344
5.965000E-8	0.001206
5.970000E-8	0.001303
5.975000E-8	0.001322
5.980000E-8	0.001400
5.985000E-8	0.001500
5.990000E-8	0.001663
5.995000E-8	0.001909
6.000000E-8	0.002034
6.005000E-8	0.002066
6.010000E-8	0.002228
6.015000E-8	0.002484
6.020000E-8	0.002625
6.025000E-8	0.002819
6.030000E-8	0.002878
6.035000E-8	0.003069
6.040000E-8	0.002894
6.045000E-8	0.002838
6.050000E-8	0.002709
6.055000E-8	0.002528
6.060000E-8	0.002341
6.065000E-8	0.002100
6.070000E-8	0.001859
6.075000E-8	0.001694
6.080000E-8	0.001616
6.085000E-8	0.001541
6.090000E-8	0.001431
6.095000E-8	0.001456
6.100000E-8	0.001338
6.105000E-8	0.001397
6.110000E-8	0.001381
6.115000E-8	0.001559
6.120000E-8	0.001619
6.125000E-8	0.001756
6.130000E-8	0.001856
6.135000E-8	0.002041
6.140000E-8	0.002159
6.145000E-8	0.002313
6.150000E-8	0.002375
6.155000E-8	0.002475
6.160000E-8	0.002556
6.165000E-8	0.002659
6.170000E-8	0.002641
6.175000E-8	0.002716
6.180000E-8	0.002491
6.185000E-8	0.002416
6.190000E-8	0.002197
6.195000E-8	0.002084
6.200000E-8	0.001881
6.205000E-8	0.001687
6.210000E-8	0.001638
6.215000E-8	0.001606
6.220000E-8	0.001516
6.225000E-8	0.001441
6.230000E-8	0.001597
6.235000E-8	0.001669
6.240000E-8	0.001750
6.245000E-8	0.001947
6.250000E-8	0.002053
6.255000E-8	0.002191
6.260000E-8	0.002422
6.265000E-8	0.002672
6.270000E-8	0.002791
6.275000E-8	0.002816
6.280000E-8	0.002966
6.285000E-8	0.003047
6.290000E-8	0.003100
6.295000E-8	0.002984
6.300000E-8	0.003006
6.305000E-8	0.002878
6.310000E-8	0.002694
6.315000E-8	0.002534
6.320000E-8	0.002394
6.325000E-8	0.002216
6.330000E-8	0.001997
6.335000E-8	0.001959
6.340000E-8	0.001713
6.345000E-8	0.001631
6.350000E-8	0.001503
6.355000E-8	0.001659
6.360000E-8	0.001578
6.365000E-8	0.001575
6.370000E-8	0.001678
6.375000E-8	0.001856
6.380000E-8	0.002038
6.385000E-8	0.002091
6.390000E-8	0.002228
6.395000E-8	0.002538
6.400000E-8	0.002609
6.405000E-8	0.002769
6.410000E-8	0.002753
6.415000E-8	0.002809
6.420000E-8	0.002688
6.425000E-8	0.002678
6.430000E-8	0.002516
6.435000E-8	0.002322
6.440000E-8	0.002159
6.445000E-8	0.001941
6.450000E-8	0.001825
6.455000E-8	0.001703
6.460000E-8	0.001481
6.465000E-8	0.001375
6.470000E-8	0.001247
6.475000E-8	0.001328
6.480000E-8	0.001209
6.485000E-8	0.001144
6.490000E-8	0.001244
6.495000E-8	0.001288
6.500000E-8	0.001519
6.505000E-8	0.001788
6.510000E-8	0.001794
6.515000E-8	0.002022
6.520000E-8	0.002222
6.525000E-8	0.002341
6.530000E-8	0.002478
6.535000E-8	0.002453
6.540000E-8	0.002425
6.545000E-8	0.002503
6.550000E-8	0.002450
6.555000E-8	0.002422
6.560000E-8	0.002341
6.565000E-8	0.002250
6.570000E-8	0.002106
6.575000E-8	0.002028
6.580000E-8	0.001941
6.585000E-8	0.001931
6.590000E-8	0.001844
6.595000E-8	0.001850
6.600000E-8	0.001813
6.605000E-8	0.001744
6.610000E-8	0.001816
6.615000E-8	0.001991
6.620000E-8	0.002084
6.625000E-8	0.002162
6.630000E-8	0.002256
6.635000E-8	0.002341
6.640000E-8	0.002453
6.645000E-8	0.002525
6.650000E-8	0.002569
6.655000E-8	0.002581
6.660000E-8	0.002509
6.665000E-8	0.002463
6.670000E-8	0.002425
6.675000E-8	0.002341
6.680000E-8	0.002275
6.685000E-8	0.002109
6.690000E-8	0.001928
6.695000E-8	0.001813
6.700000E-8	0.001612
6.705000E-8	0.001513
6.710000E-8	0.001497
6.715000E-8	0.001559
6.720000E-8	0.001469
6.725000E-8	0.001581
6.730000E-8	0.001672
6.735000E-8	0.001769
6.740000E-8	0.001844
6.745000E-8	0.001894
6.750000E-8	0.001959
6.755000E-8	0.002059
6.760000E-8	0.002144
6.765000E-8	0.002303
6.770000E-8	0.002372
6.775000E-8	0.002569
6.780000E-8	0.002450
6.785000E-8	0.002456
6.790000E-8	0.002413
6.795000E-8	0.002356
6.800000E-8	0.002422
6.805000E-8	0.002378
6.810000E-8	0.002213
6.815000E-8	0.002116
6.820000E-8	0.002034
6.825000E-8	0.002003
6.830000E-8	0.001913
6.835000E-8	0.001881
6.840000E-8	0.001759
6.845000E-8	0.001584
6.850000E-8	0.001547
6.855000E-8	0.001612
6.860000E-8	0.001622
6.865000E-8	0.001813
6.870000E-8	0.001956
6.875000E-8	0.002150
6.880000E-8	0.002278
6.885000E-8	0.002538
6.890000E-8	0.002631
6.895000E-8	0.002672
6.900000E-8	0.002638
6.905000E-8	0.002650
6.910000E-8	0.002459
6.915000E-8	0.002463
6.920000E-8	0.002391
6.925000E-8	0.002381
6.930000E-8	0.002281
6.935000E-8	0.002162
6.940000E-8	0.002000
6.945000E-8	0.002031
6.950000E-8	0.001859
6.955000E-8	0.001816
6.960000E-8	0.001763
6.965000E-8	0.001731
6.970000E-8	0.001681
6.975000E-8	0.001663
6.980000E-8	0.001647
6.985000E-8	0.001687
6.990000E-8	0.001731
6.995000E-8	0.001797
7.000000E-8	0.001956
7.005000E-8	0.002025
7.010000E-8	0.002091
7.015000E-8	0.002263
7.020000E-8	0.002413
7.025000E-8	0.002494
7.030000E-8	0.002638
7.035000E-8	0.002675
7.040000E-8	0.002647
7.045000E-8	0.002587
7.050000E-8	0.002478
7.055000E-8	0.002478
7.060000E-8	0.002303
7.065000E-8	0.002247
7.070000E-8	0.002103
7.075000E-8	0.002019
7.080000E-8	0.001844
7.085000E-8	0.001788
7.090000E-8	0.001741
7.095000E-8	0.001703
7.100000E-8	0.001628
7.105000E-8	0.001697
7.110000E-8	0.001694
7.115000E-8	0.001825
7.120000E-8	0.001797
7.125000E-8	0.001813
7.130000E-8	0.001963
7.135000E-8	0.002178
7.140000E-8	0.002281
7.145000E-8	0.002441
7.150000E-8	0.002509
7.155000E-8	0.002706
7.160000E-8	0.002709
7.165000E-8	0.002697
7.170000E-8	0.002675
7.175000E-8	0.002625
7.180000E-8	0.002525
7.185000E-8	0.002406
7.190000E-8	0.002334
7.195000E-8	0.002166
7.200000E-8	0.002078
7.205000E-8	0.002025
7.210000E-8	0.001697
7.215000E-8	0.001597
7.220000E-8	0.001563
7.225000E-8	0.001572
7.230000E-8	0.001631
7.235000E-8	0.001672
7.240000E-8	0.001634
7.245000E-8	0.001684
7.250000E-8	0.001859
7.255000E-8	0.001947
7.260000E-8	0.002041
7.265000E-8	0.002213
7.270000E-8	0.002250
7.275000E-8	0.002350
7.280000E-8	0.002434
7.285000E-8	0.002459
7.290000E-8	0.002525
7.295000E-8	0.002609
7.300000E-8	0.002628
7.305000E-8	0.002653
7.310000E-8	0.002488
7.315000E-8	0.002475
7.320000E-8	0.002234
7.325000E-8	0.002206
7.330000E-8	0.002162
7.335000E-8	0.002050
7.340000E-8	0.001838
7.345000E-8	0.001819
7.350000E-8	0.001769
7.355000E-8	0.001797
7.360000E-8	0.001731
7.365000E-8	0.001838
7.370000E-8	0.001781
7.375000E-8	0.001981
7.380000E-8	0.002075
7.385000E-8	0.002119
7.390000E-8	0.002241
7.395000E-8	0.002394
7.400000E-8	0.002388
7.405000E-8	0.002503
7.410000E-8	0.002512
7.415000E-8	0.002444
7.420000E-8	0.002491
7.425000E-8	0.002512
7.430000E-8	0.002509
7.435000E-8	0.002403
7.440000E-8	0.002441
7.445000E-8	0.002394
7.450000E-8	0.002250
7.455000E-8	0.002175
7.460000E-8	0.002078
7.465000E-8	0.002197
7.470000E-8	0.002150
7.475000E-8	0.002012
7.480000E-8	0.001884
7.485000E-8	0.001903
7.490000E-8	0.001903
7.495000E-8	0.001944
7.500000E-8	0.001803
7.505000E-8	0.002069
7.510000E-8	0.002134
7.515000E-8	0.002188
7.520000E-8	0.002347
7.525000E-8	0.002519
7.530000E-8	0.002581
7.535000E-8	0.002725
7.540000E-8	0.002638
7.545000E-8	0.002737
7.550000E-8	0.002503
7.555000E-8	0.002563
7.560000E-8	0.002422
7.565000E-8	0.002406
7.570000E-8	0.002213
7.575000E-8	0.002144
7.580000E-8	0.001963
7.585000E-8	0.001744
7.590000E-8	0.001772
7.595000E-8	0.001656
7.600000E-8	0.001659
7.605000E-8	0.001794
7.610000E-8	0.001816
7.615000E-8	0.001759
7.620000E-8	0.001722
7.625000E-8	0.001791
7.630000E-8	0.001984
7.635000E-8	0.002122
7.640000E-8	0.002206
7.645000E-8	0.002203
7.650000E-8	0.002422
7.655000E-8	0.002569
7.660000E-8	0.002656
7.665000E-8	0.002688
7.670000E-8	0.002628
7.675000E-8	0.002656
7.680000E-8	0.002531
7.685000E-8	0.002263
7.690000E-8	0.002228
7.695000E-8	0.002197
7.700000E-8	0.001981
7.705000E-8	0.001863
7.710000E-8	0.001866
7.715000E-8	0.001888
7.720000E-8	0.001750
7.725000E-8	0.001825
7.730000E-8	0.001888
7.735000E-8	0.002009
7.740000E-8	0.002100
7.745000E-8	0.002219
7.750000E-8	0.002325
7.755000E-8	0.002453
7.760000E-8	0.002328
7.765000E-8	0.002419
7.770000E-8	0.002356
7.775000E-8	0.002400
7.780000E-8	0.002350
7.785000E-8	0.002413
7.790000E-8	0.002319
7.795000E-8	0.002291
7.800000E-8	0.002228
7.805000E-8	0.002225
7.810000E-8	0.002328
7.815000E-8	0.002350
7.820000E-8	0.002322
7.825000E-8	0.002278
7.830000E-8	0.002228
7.835000E-8	0.002237
7.840000E-8	0.001972
7.845000E-8	0.001741
7.850000E-8	0.001697
7.855000E-8	0.001697
7.860000E-8	0.001644
7.865000E-8	0.001709
7.870000E-8	0.001800
7.875000E-8	0.002031
7.880000E-8	0.002069
7.885000E-8	0.002144
7.890000E-8	0.002228
7.895000E-8	0.002388
7.900000E-8	0.002394
7.905000E-8	0.002434
7.910000E-8	0.002388
7.915000E-8	0.002391
7.920000E-8	0.002344
7.925000E-8	0.002269
7.930000E-8	0.002244
7.935000E-8	0.002259
7.940000E-8	0.002075
7.945000E-8	0.002075
7.950000E-8	0.002053
7.955000E-8	0.002038
7.960000E-8	0.001969
7.965000E-8	0.001869
7.970000E-8	0.001869
7.975000E-8	0.001925
7.980000E-8	0.001959
7.985000E-8	0.001816
7.990000E-8	0.001888
7.995000E-8	0.001975
8.000000E-8	0.002103
8.005000E-8	0.002028
8.010000E-8	0.002025
8.015000E-8	0.002159
8.020000E-8	0.002147
8.025000E-8	0.002328
8.030000E-8	0.002359
8.035000E-8	0.002437
8.040000E-8	0.002466
8.045000E-8	0.002597
8.050000E-8	0.002650
8.055000E-8	0.002625
8.060000E-8	0.002369
8.065000E-8	0.002359
8.070000E-8	0.002266
8.075000E-8	0.002263
8.080000E-8	0.002237
8.085000E-8	0.002106
8.090000E-8	0.001984
8.095000E-8	0.002003
8.100000E-8	0.001997
8.105000E-8	0.002034
8.110000E-8	0.002056
8.115000E-8	0.002197
8.120000E-8	0.002144
8.125000E-8	0.002194
8.130000E-8	0.002191
8.135000E-8	0.002272
8.140000E-8	0.002281
8.145000E-8	0.002281
8.150000E-8	0.002353
8.155000E-8	0.002394
8.160000E-8	0.002459
8.165000E-8	0.002572
8.170000E-8	0.002512
8.175000E-8	0.002522
8.180000E-8	0.002403
8.185000E-8	0.002481
8.190000E-8	0.002366
8.195000E-8	0.002259
8.200000E-8	0.002216
8.205000E-8	0.002041
8.210000E-8	0.002019
8.215000E-8	0.001950
8.220000E-8	0.001984
8.225000E-8	0.002000
8.230000E-8	0.001844
8.235000E-8	0.001988
8.240000E-8	0.002034
8.245000E-8	0.002109
8.250000E-8	0.002237
8.255000E-8	0.002328
8.260000E-8	0.002475
8.265000E-8	0.002516
8.270000E-8	0.002525
8.275000E-8	0.002731
8.280000E-8	0.002788
8.285000E-8	0.002947
8.290000E-8	0.002866
8.295000E-8	0.002891
8.300000E-8	0.002713
8.305000E-8	0.002697
8.310000E-8	0.002603
8.315000E-8	0.002441
8.320000E-8	0.002366
8.325000E-8	0.002075
8.330000E-8	0.001966
8.335000E-8	0.001863
8.340000E-8	0.001672
8.345000E-8	0.001663
8.350000E-8	0.001650
8.355000E-8	0.001744
8.360000E-8	0.001781
8.365000E-8	0.001838
8.370000E-8	0.002012
8.375000E-8	0.002175
8.380000E-8	0.002275
8.385000E-8	0.002288
8.390000E-8	0.002341
8.395000E-8	0.002413
8.400000E-8	0.002406
8.405000E-8	0.002353
8.410000E-8	0.002350
8.415000E-8	0.002269
8.420000E-8	0.002081
8.425000E-8	0.002075
8.430000E-8	0.002056
8.435000E-8	0.002025
8.440000E-8	0.001906
8.445000E-8	0.001825
8.450000E-8	0.001869
8.455000E-8	0.001766
8.460000E-8	0.001813
8.465000E-8	0.001853
8.470000E-8	0.001963
8.475000E-8	0.001997
8.480000E-8	0.002009
8.485000E-8	0.002094
8.490000E-8	0.002122
8.495000E-8	0.002366
8.500000E-8	0.002331
8.505000E-8	0.002294
8.510000E-8	0.002294
8.515000E-8	0.002228
8.520000E-8	0.002222
8.525000E-8	0.002263
8.530000E-8	0.002338
8.535000E-8	0.002488
8.540000E-8	0.002297
8.545000E-8	0.002378
8.550000E-8	0.002334
8.555000E-8	0.002309
8.560000E-8	0.002091
8.565000E-8	0.002109
8.570000E-8	0.001959
8.575000E-8	0.001941
8.580000E-8	0.001888
8.585000E-8	0.001947
8.590000E-8	0.001803
8.595000E-8	0.001834
8.600000E-8	0.001881
8.605000E-8	0.001813
8.610000E-8	0.001753
8.615000E-8	0.001766
8.620000E-8	0.001822
8.625000E-8	0.001919
8.630000E-8	0.001844
8.635000E-8	0.002084
8.640000E-8	0.002072
8.645000E-8	0.002162
8.650000E-8	0.002150
8.655000E-8	0.002319
8.660000E-8	0.002413
8.665000E-8	0.002456
8.670000E-8	0.002541
8.675000E-8	0.002591
8.680000E-8	0.002494
8.685000E-8	0.002441
8.690000E-8	0.002369
8.695000E-8	0.002169
8.700000E-8	0.001947
8.705000E-8	0.001934
8.710000E-8	0.001875
8.715000E-8	0.001850
8.720000E-8	0.001856
8.725000E-8	0.001784
8.730000E-8	0.001816
8.735000E-8	0.001850
8.740000E-8	0.001853
8.745000E-8	0.002016
8.750000E-8	0.001947
8.755000E-8	0.002119
8.760000E-8	0.002138
8.765000E-8	0.002147
8.770000E-8	0.002228
8.775000E-8	0.002297
8.780000E-8	0.002263
8.785000E-8	0.002194
8.790000E-8	0.002184
8.795000E-8	0.002131
8.800000E-8	0.002059
8.805000E-8	0.002025
8.810000E-8	0.001944
8.815000E-8	0.001972
8.820000E-8	0.002006
8.825000E-8	0.002063
8.830000E-8	0.002031
8.835000E-8	0.002166
8.840000E-8	0.002059
8.845000E-8	0.002044
8.850000E-8	0.001975
8.855000E-8	0.001978
8.860000E-8	0.001784
8.865000E-8	0.001878
8.870000E-8	0.001791
8.875000E-8	0.001875
8.880000E-8	0.001913
8.885000E-8	0.002025
8.890000E-8	0.002100
8.895000E-8	0.002169
8.900000E-8	0.002188
8.905000E-8	0.002272
8.910000E-8	0.002300
8.915000E-8	0.002463
8.920000E-8	0.002391
8.925000E-8	0.002400
8.930000E-8	0.002288
8.935000E-8	0.002325
8.940000E-8	0.002191
8.945000E-8	0.002244
8.950000E-8	0.002225
8.955000E-8	0.002231
8.960000E-8	0.002153
8.965000E-8	0.002044
8.970000E-8	0.002012
8.975000E-8	0.002053
8.980000E-8	0.002100
8.985000E-8	0.002125
8.990000E-8	0.002053
8.995000E-8	0.002053
9.000000E-8	0.002125
9.005000E-8	0.002219
9.010000E-8	0.002272
9.015000E-8	0.002309
9.020000E-8	0.002331
9.025000E-8	0.002403
9.030000E-8	0.002391
9.035000E-8	0.002272
9.040000E-8	0.002347
9.045000E-8	0.002403
9.050000E-8	0.002400
9.055000E-8	0.002172
9.060000E-8	0.002131
9.065000E-8	0.002075
9.070000E-8	0.001941
9.075000E-8	0.002000
9.080000E-8	0.002019
9.085000E-8	0.001941
9.090000E-8	0.001884
9.095000E-8	0.001956
9.100000E-8	0.001966
9.105000E-8	0.002069
9.110000E-8	0.002091
9.115000E-8	0.002234
9.120000E-8	0.002216
9.125000E-8	0.002259
9.130000E-8	0.002369
9.135000E-8	0.002375
9.140000E-8	0.002266
9.145000E-8	0.002291
9.150000E-8	0.002216
9.155000E-8	0.002219
9.160000E-8	0.002219
9.165000E-8	0.002209
9.170000E-8	0.002231
9.175000E-8	0.002300
9.180000E-8	0.002353
9.185000E-8	0.002306
9.190000E-8	0.002288
9.195000E-8	0.002284
9.200000E-8	0.002169
9.205000E-8	0.002259
9.210000E-8	0.002134
9.215000E-8	0.002147
9.220000E-8	0.002012
9.225000E-8	0.002022
9.230000E-8	0.001906
9.235000E-8	0.001953
9.240000E-8	0.001856
9.245000E-8	0.001937
9.250000E-8	0.001891
9.255000E-8	0.002066
9.260000E-8	0.002141
9.265000E-8	0.002200
9.270000E-8	0.002175
9.275000E-8	0.002303
9.280000E-8	0.002231
9.285000E-8	0.002363
9.290000E-8	0.002425
9.295000E-8	0.002416
9.300000E-8	0.002356
9.305000E-8	0.002413
9.310000E-8	0.002319
9.315000E-8	0.002303
9.320000E-8	0.002334
9.325000E-8	0.002413
9.330000E-8	0.002338
9.335000E-8	0.002338
9.340000E-8	0.002372
9.345000E-8	0.002372
9.350000E-8	0.002319
9.355000E-8	0.002278
9.360000E-8	0.002188
9.365000E-8	0.002150
9.370000E-8	0.002084
9.375000E-8	0.002141
9.380000E-8	0.002009
9.385000E-8	0.002100
9.390000E-8	0.002119
9.395000E-8	0.002250
9.400000E-8	0.002197
9.405000E-8	0.002219
9.410000E-8	0.002294
9.415000E-8	0.002184
9.420000E-8	0.002178
9.425000E-8	0.002169
9.430000E-8	0.002081
9.435000E-8	0.002094
9.440000E-8	0.002053
9.445000E-8	0.001925
9.450000E-8	0.001934
9.455000E-8	0.001934
9.460000E-8	0.001738
9.465000E-8	0.001759
9.470000E-8	0.001734
9.475000E-8	0.001703
9.480000E-8	0.001619
9.485000E-8	0.001634
9.490000E-8	0.001681
9.495000E-8	0.001687
9.500000E-8	0.001584
9.505000E-8	0.001675
9.510000E-8	0.001597
9.515000E-8	0.001659
9.520000E-8	0.001722
9.525000E-8	0.001694
9.530000E-8	0.001747
9.535000E-8	0.001784
9.540000E-8	0.001888
9.545000E-8	0.002012
9.550000E-8	0.002059
9.555000E-8	0.002138
9.560000E-8	0.002094
9.565000E-8	0.002041
9.570000E-8	0.002056
9.575000E-8	0.001988
9.580000E-8	0.001959
9.585000E-8	0.001841
9.590000E-8	0.001825
9.595000E-8	0.001825
9.600000E-8	0.001784
9.605000E-8	0.001750
9.610000E-8	0.001822
9.615000E-8	0.001888
9.620000E-8	0.001850
9.625000E-8	0.002016
9.630000E-8	0.001994
9.635000E-8	0.002200
9.640000E-8	0.002322
9.645000E-8	0.002341
9.650000E-8	0.002434
9.655000E-8	0.002550
9.660000E-8	0.002556
9.665000E-8	0.002734
9.670000E-8	0.002631
9.675000E-8	0.002747
9.680000E-8	0.002572
9.685000E-8	0.002478
9.690000E-8	0.002234
9.695000E-8	0.002344
9.700000E-8	0.002203
9.705000E-8	0.002256
9.710000E-8	0.002266
9.715000E-8	0.002191
9.720000E-8	0.002081
9.725000E-8	0.002144
9.730000E-8	0.002234
9.735000E-8	0.002184
9.740000E-8	0.002231
9.745000E-8	0.002269
9.750000E-8	0.002200
9.755000E-8	0.002184
9.760000E-8	0.002291
9.765000E-8	0.002338
9.770000E-8	0.002231
9.775000E-8	0.002294
9.780000E-8	0.002197
9.785000E-8	0.002234
9.790000E-8	0.002166
9.795000E-8	0.002081
9.800000E-8	0.002006
9.805000E-8	0.001866
9.810000E-8	0.001909
9.815000E-8	0.001925
9.820000E-8	0.001953
9.825000E-8	0.001988
9.830000E-8	0.002009
9.835000E-8	0.002100
9.840000E-8	0.002066
9.845000E-8	0.001966
9.850000E-8	0.001894
9.855000E-8	0.001972
9.860000E-8	0.001881
9.865000E-8	0.001878
9.870000E-8	0.001853
9.875000E-8	0.001888
9.880000E-8	0.001866
9.885000E-8	0.001963
9.890000E-8	0.001953
9.895000E-8	0.001959
9.900000E-8	0.001963
9.905000E-8	0.002141
9.910000E-8	0.002134
9.915000E-8	0.002338
9.920000E-8	0.002319
9.925000E-8	0.002419
9.930000E-8	0.002278
9.935000E-8	0.002319
9.940000E-8	0.002200
9.945000E-8	0.002206
9.950000E-8	0.002172
9.955000E-8	0.002031
9.960000E-8	0.002041
9.965000E-8	0.002031
9.970000E-8	0.002031
9.975000E-8	0.002059
9.980000E-8	0.001925
9.985000E-8	0.001863
9.990000E-8	0.001822
9.995000E-8	0.001834
